timestamp,accX,accY,accZ,gyrX,gyrY,gyrZ
0,0.17,0.99,-0.15,-3.11,0.37,-2.26
20,0.17,0.99,-0.15,-3.48,0.18,-2.50
40,0.17,0.99,-0.15,-3.85,0.00,-2.69
60,0.16,1.00,-0.14,-4.03,-0.79,-2.50
80,0.17,1.00,-0.14,-3.48,-0.92,-2.01
100,0.17,0.99,-0.15,-3.11,-0.67,-1.71
120,0.17,0.99,-0.15,-3.48,-0.92,-1.83
140,0.17,0.99,-0.15,-4.33,-0.06,-2.62
160,0.16,1.00,-0.14,-5.13,-0.43,-3.05
180,0.16,1.00,-0.12,-4.09,-1.46,-2.81
200,0.16,1.00,-0.13,-2.20,-1.40,-1.83
220,0.16,0.99,-0.14,-1.83,-0.98,-1.40
240,0.16,0.99,-0.14,-2.38,-0.37,-1.77
260,0.16,1.00,-0.14,-2.75,-0.24,-1.53
280,0.16,1.00,-0.13,-2.26,-0.98,-0.92
300,0.16,1.00,-0.13,-0.85,-1.34,0.49
320,0.16,1.00,-0.13,-0.61,-1.89,1.22
340,0.17,1.00,-0.14,-0.98,-1.77,1.53
360,0.17,0.99,-0.14,-1.40,-1.16,1.59
380,0.16,1.00,-0.14,-2.62,-1.34,1.04
400,0.16,1.00,-0.13,-3.42,-1.71,1.53
420,0.16,1.00,-0.13,-3.48,-2.08,2.20
440,0.18,1.00,-0.13,-3.91,-2.56,2.75
460,0.18,0.99,-0.13,-3.42,-1.89,2.69
480,0.18,0.99,-0.14,-3.78,-1.95,2.44
500,0.17,0.99,-0.13,-5.07,-1.65,2.32
520,0.17,1.00,-0.12,-5.92,-1.59,2.44
540,0.18,0.99,-0.12,-6.10,-1.65,2.44
560,0.19,0.99,-0.12,-5.13,-0.31,2.08
580,0.19,0.99,-0.12,-3.23,0.37,1.04
600,0.18,1.00,-0.11,-2.08,0.31,0.55
620,0.18,1.00,-0.11,-0.18,0.31,1.28
640,0.18,1.00,-0.12,0.37,0.18,1.77
660,0.18,1.00,-0.12,0.37,0.12,1.71
680,0.19,0.99,-0.13,0.79,0.98,1.71
700,0.18,1.00,-0.13,-0.37,1.22,1.22
720,0.18,1.00,-0.11,-1.16,-0.12,2.01
740,0.19,1.00,-0.11,-1.04,0.12,3.48
760,0.20,0.99,-0.12,-0.61,0.61,3.66
780,0.20,0.99,-0.12,-0.73,0.79,2.87
800,0.19,0.99,-0.13,-0.55,1.46,2.50
820,0.19,1.00,-0.12,-1.28,0.67,2.87
840,0.19,1.00,-0.11,-2.01,-0.06,4.82
860,0.21,0.99,-0.12,-2.50,0.61,5.13
880,0.21,0.99,-0.11,-2.87,0.98,4.21
900,0.21,0.99,-0.12,-1.65,1.83,3.23
920,0.21,0.99,-0.13,-1.16,1.34,2.50
940,0.18,1.02,-0.11,-2.62,0.31,3.78
960,0.20,1.01,-0.10,-3.30,-1.95,8.30
980,0.22,0.99,-0.12,-3.36,-0.85,9.70
1000,0.23,0.98,-0.14,-5.31,0.00,7.69
1020,0.21,1.00,-0.12,-6.41,0.12,6.96
1040,0.20,1.01,-0.13,-7.32,-0.73,8.30
1060,0.23,1.00,-0.13,-8.61,-2.14,10.25
1080,0.22,1.02,-0.13,-11.23,-2.62,10.19
1100,0.25,1.00,-0.09,-11.90,-3.23,11.29
1120,0.25,0.99,-0.11,-11.54,-1.22,11.17
1140,0.23,1.04,-0.13,-12.15,-1.83,11.96
1160,0.24,1.04,-0.09,-13.12,-4.39,15.50
1180,0.26,1.01,-0.12,-15.14,-5.07,20.20
1200,0.28,0.98,-0.12,-18.25,-5.55,21.30
1220,0.27,1.01,-0.11,-22.09,-5.74,21.18
1240,0.24,1.07,-0.05,-23.38,-8.67,26.18
1260,0.28,1.08,0.00,-23.44,-9.77,31.43
1280,0.29,1.06,0.02,-20.26,-6.84,35.58
1300,0.31,1.01,-0.00,-15.08,-5.00,40.28
1320,0.37,0.91,-0.02,-14.22,-4.39,40.16
1340,0.36,0.94,-0.03,-13.31,-2.93,37.35
1360,0.35,0.98,0.01,-12.51,-4.58,37.05
1380,0.36,1.04,0.03,-11.66,-6.71,41.75
1400,0.38,1.00,0.03,-8.67,-6.84,46.02
1420,0.43,0.90,0.03,-7.69,-5.98,47.97
1440,0.47,0.74,-0.01,-7.81,-1.59,43.58
1460,0.49,0.79,-0.01,-8.12,-5.25,36.07
1480,0.50,0.79,-0.00,-9.58,-5.25,31.80
1500,0.52,0.79,0.01,-9.70,-7.93,26.31
1520,0.51,0.81,0.01,-12.27,-6.41,21.91
1540,0.51,0.86,0.03,-11.47,-6.35,17.88
1560,0.52,0.88,0.10,-9.34,-6.84,16.36
1580,0.53,0.87,0.10,-7.39,-6.65,15.99
1600,0.53,0.88,0.09,-4.52,-4.64,15.44
1620,0.54,0.82,0.04,-3.30,-4.03,14.28
1640,0.55,0.81,0.03,-3.54,-3.66,11.54
1660,0.55,0.83,0.04,-3.78,-3.23,8.91
1680,0.54,0.85,0.07,-3.72,-4.88,6.71
1700,0.57,0.81,0.08,-3.66,-2.75,3.66
1720,0.58,0.79,0.09,-1.71,-0.79,0.98
1740,0.58,0.77,0.12,1.04,0.55,-6.47
1760,0.57,0.78,0.13,7.26,2.75,-12.08
1780,0.55,0.80,0.08,9.83,4.21,-16.17
1800,0.52,0.88,0.04,11.23,6.77,-19.41
1820,0.53,0.89,0.04,12.63,2.99,-17.82
1840,0.52,0.86,0.03,13.18,4.46,-17.94
1860,0.51,0.85,0.05,13.92,4.46,-18.74
1880,0.51,0.86,-0.01,11.78,7.39,-20.63
1900,0.52,0.84,-0.03,10.44,7.45,-22.22
1920,0.49,0.86,-0.02,9.64,8.91,-25.02
1940,0.48,0.87,0.03,10.19,8.54,-29.42
1960,0.46,0.88,0.01,10.74,8.48,-30.21
1980,0.50,0.82,-0.05,8.00,10.07,-31.07
2000,0.47,0.87,-0.02,8.24,8.36,-33.87
2020,0.43,0.81,0.01,8.36,9.03,-35.46
2040,0.39,0.90,0.01,9.89,8.12,-39.12
2060,0.33,1.07,-0.02,10.74,3.85,-36.44
2080,0.31,1.11,-0.03,12.02,6.84,-28.99
2100,0.39,1.00,-0.01,12.88,5.00,-23.32
2120,0.43,0.84,-0.00,13.92,11.35,-25.39
2140,0.29,1.01,-0.14,13.37,13.49,-26.92
2160,0.35,1.01,-0.18,8.54,5.49,-19.47
2180,0.26,1.17,-0.17,3.66,0.73,-12.51
2200,0.33,1.03,-0.05,1.77,0.67,-7.45
2220,0.40,0.81,-0.00,2.20,0.55,-7.39
2240,0.33,0.91,-0.06,2.44,9.77,-15.01
2260,0.27,1.09,-0.06,4.33,4.64,-11.66
2280,0.31,1.04,-0.11,4.82,0.85,-4.09
2300,0.33,1.00,-0.14,3.48,1.40,-1.83
2320,0.34,0.92,-0.11,-0.85,1.83,-2.81
2340,0.37,0.86,-0.06,-2.99,1.95,-6.59
2360,0.37,0.85,-0.04,-3.23,4.15,-12.51
2380,0.35,0.85,-0.01,-1.28,8.97,-23.99
2400,0.27,1.02,-0.03,1.89,10.68,-28.20
2420,0.29,0.99,-0.04,5.07,6.23,-23.07
2440,0.32,0.91,-0.08,8.30,8.79,-23.32
2460,0.29,0.97,-0.15,6.90,13.73,-28.08
2480,0.28,1.01,-0.16,2.81,15.08,-31.74
2500,0.21,1.08,-0.19,-4.21,20.57,-32.29
2520,0.13,1.17,-0.06,-6.29,7.26,-20.32
2540,0.21,1.05,-0.07,-2.26,2.50,-8.00
2560,0.26,0.97,-0.09,0.79,5.80,-6.41
2580,0.28,0.94,-0.11,-0.31,8.48,-10.62
2600,0.28,0.94,-0.12,-0.85,11.78,-16.24
2620,0.20,1.00,-0.12,1.28,13.98,-21.48
2640,0.13,1.07,-0.07,3.97,5.43,-14.28
2660,0.19,1.01,-0.10,3.42,1.22,-6.35
2680,0.20,1.00,-0.10,2.08,1.71,-5.13
2700,0.20,1.00,-0.09,3.30,2.81,-4.03
2720,0.20,1.00,-0.10,4.88,3.48,-3.85
2740,0.18,1.00,-0.11,5.49,3.78,-3.60
2760,0.18,1.00,-0.12,3.85,0.31,0.98
2780,0.21,0.98,-0.13,1.65,-0.85,2.08
2800,0.21,0.98,-0.12,-0.18,0.06,0.85
2820,0.20,0.99,-0.11,-1.10,1.22,-0.79
2840,0.20,1.00,-0.11,-1.16,0.92,-0.43
2860,0.20,1.00,-0.12,-1.04,0.49,0.00
2880,0.20,0.99,-0.12,-0.98,-0.37,1.22
2900,0.21,0.99,-0.12,-1.10,-0.37,1.16
2920,0.21,0.99,-0.12,-0.85,0.18,0.79
2940,0.21,0.99,-0.12,-1.28,0.55,0.43
2960,0.20,0.99,-0.12,-1.40,0.24,0.18
2980,0.21,0.99,-0.12,-1.59,0.12,0.18
3000,0.20,0.99,-0.12,-1.71,0.12,0.00
3020,0.21,0.99,-0.12,-1.71,0.37,0.00
3040,0.22,0.98,-0.12,-1.59,0.55,-0.61
3060,0.21,0.99,-0.12,-1.34,1.16,-1.34
3080,0.20,1.00,-0.11,-1.34,1.16,-1.59
3100,0.21,0.99,-0.12,-1.46,0.67,-0.85
3120,0.21,0.99,-0.12,-1.65,0.79,-0.98
3140,0.21,0.99,-0.12,-2.14,1.16,-1.83
3160,0.20,1.00,-0.11,-2.01,1.22,-2.14
3180,0.19,1.00,-0.11,-1.95,0.85,-1.40
3200,0.20,1.00,-0.11,-1.65,-0.06,0.24
3220,0.20,0.99,-0.11,-1.71,-0.06,0.37
3240,0.21,0.99,-0.12,-2.08,0.24,0.12
3260,0.20,1.00,-0.11,-2.93,0.49,-0.43
3280,0.20,1.00,-0.11,-2.62,0.12,0.55
3300,0.20,0.99,-0.11,-2.56,-0.73,1.28
3320,0.21,0.99,-0.11,-2.87,-0.43,1.28
3340,0.21,0.99,-0.11,-3.11,-0.43,1.16
3360,0.21,0.99,-0.11,-4.03,-0.12,0.85
3380,0.20,1.00,-0.11,-4.94,-0.92,1.71
3400,0.20,1.00,-0.10,-5.86,-1.40,2.44
3420,0.21,1.00,-0.10,-6.10,-1.53,3.11
3440,0.20,1.00,-0.10,-6.04,-1.77,4.64
3460,0.21,1.00,-0.09,-6.16,-1.65,5.68
3480,0.20,1.01,-0.11,-6.53,-2.01,7.93
3500,0.20,1.02,-0.13,-8.36,-3.05,10.80
3520,0.20,1.06,-0.12,-10.74,-5.13,14.77
3540,0.25,1.00,-0.11,-10.68,-6.77,17.94
3560,0.24,1.03,-0.13,-13.67,-5.13,17.76
3580,0.25,1.03,-0.12,-19.59,-4.39,19.29
3600,0.26,1.03,-0.11,-22.71,-5.55,20.63
3620,0.24,1.03,-0.07,-25.15,-6.71,22.83
3640,0.25,1.03,-0.04,-24.96,-6.35,26.06
3660,0.28,1.01,0.02,-23.25,-7.93,28.75
3680,0.30,0.96,0.00,-21.12,-4.46,29.54
3700,0.32,0.93,-0.02,-20.57,-2.56,27.40
3720,0.35,0.90,-0.04,-21.97,-2.69,25.21
3740,0.33,0.96,-0.03,-24.05,-2.56,22.40
3760,0.34,0.96,0.05,-23.93,-4.70,24.29
3780,0.34,0.97,0.08,-21.97,-3.91,24.60
3800,0.37,0.94,0.06,-19.53,-2.69,25.51
3820,0.39,0.90,0.04,-19.23,-0.43,22.52
3840,0.38,0.96,0.02,-18.98,0.55,20.57
3860,0.39,0.95,0.04,-19.23,-0.85,22.71
3880,0.39,0.96,0.06,-19.53,-0.79,24.60
3900,0.41,0.92,0.08,-18.98,-0.67,24.60
3920,0.43,0.92,0.08,-18.86,-0.12,23.74
3940,0.43,0.92,0.10,-18.07,0.12,23.32
3960,0.43,0.93,0.12,-14.89,0.73,22.58
3980,0.45,0.94,0.15,-12.27,0.06,23.25
4000,0.46,0.93,0.16,-8.00,0.37,23.74
4020,0.46,0.96,0.20,0.61,-0.24,26.25
4040,0.47,0.92,0.19,8.00,-1.16,28.50
4060,0.50,0.81,0.13,10.62,-2.50,27.89
4080,0.53,0.79,0.01,6.96,0.98,19.84
4100,0.51,0.84,-0.01,3.78,1.34,16.42
4120,0.53,0.84,0.03,0.67,-0.37,15.20
4140,0.55,0.80,0.11,0.31,-1.10,10.99
4160,0.58,0.75,0.18,4.15,-0.31,5.68
4180,0.60,0.66,0.19,7.51,1.53,-1.77
4200,0.57,0.63,0.08,4.70,7.20,-18.62
4220,0.50,0.84,-0.05,1.77,9.95,-28.08
4240,0.45,1.02,0.04,0.12,4.27,-29.17
4260,0.46,1.03,0.13,4.33,-2.75,-17.52
4280,0.44,1.00,0.14,7.45,0.67,-13.24
4300,0.46,1.00,0.13,9.34,-0.37,-7.32
4320,0.46,1.00,0.11,10.62,1.22,13.61
4340,0.48,0.88,0.08,16.05,0.79,2.14
4360,0.50,0.80,0.02,15.69,0.85,1.71
4380,0.51,0.82,-0.04,9.58,2.87,-2.32
4400,0.47,0.91,-0.05,2.01,1.95,-8.30
4420,0.46,0.96,-0.02,-1.28,-0.73,-6.59
4440,0.48,0.92,0.03,-3.97,-2.20,-4.21
4460,0.50,0.86,0.11,-2.69,-0.61,-5.74
4480,0.50,0.85,0.14,0.12,1.53,-8.91
4500,0.47,0.92,0.15,4.15,2.99,-11.54
4520,0.45,0.97,0.09,14.89,2.32,-9.22
4540,0.47,0.93,0.05,18.74,0.61,-6.04
4560,0.49,0.86,-0.00,17.76,1.95,-5.74
4580,0.46,0.81,-0.07,11.66,5.00,-10.38
4600,0.46,0.86,-0.13,4.82,5.68,-13.92
4620,0.45,0.92,-0.08,-1.59,2.75,-15.87
4640,0.47,0.90,-0.00,-4.27,-0.92,-16.72
4660,0.48,0.86,0.08,-3.36,0.31,-20.39
4680,0.46,0.77,0.10,-2.93,3.11,-26.00
4700,0.34,1.06,-0.02,-3.66,5.55,-28.14
4720,0.36,1.08,-0.03,-5.98,3.36,-21.18
4740,0.40,1.00,-0.00,-4.82,0.61,-15.14
4760,0.40,0.97,0.06,-3.66,2.08,-13.06
4780,0.40,0.88,0.12,0.73,4.09,-15.81
4800,0.33,1.03,0.10,5.62,4.03,-16.72
4820,0.34,1.08,0.03,10.68,2.99,-10.13
4840,0.38,0.99,-0.04,13.98,-0.06,-0.12
4860,0.40,0.93,-0.04,12.21,0.24,0.73
4880,0.41,0.87,-0.04,9.77,1.22,-2.14
4900,0.43,0.79,0.00,6.35,3.48,-11.66
4920,0.44,0.74,0.02,6.04,4.58,-18.98
4940,0.28,1.07,-0.03,6.41,8.06,-25.33
4960,0.30,1.13,0.04,12.88,-1.40,-11.96
4980,0.36,1.00,0.01,16.66,0.67,-5.31
5000,0.38,0.91,-0.07,18.19,6.71,-7.14
5020,0.41,0.81,-0.04,12.15,11.41,-16.30
5040,0.28,1.01,-0.11,9.58,8.36,-16.78
5060,0.30,1.05,-0.15,6.04,4.21,-10.74
5080,0.33,1.03,-0.08,2.56,0.61,-6.23
5100,0.35,0.94,-0.06,1.71,2.01,-5.92
5120,0.38,0.84,-0.05,1.40,4.15,-9.70
5140,0.37,0.80,-0.02,0.67,7.14,-21.36
5160,0.31,0.95,-0.03,0.49,5.25,-21.30
5180,0.26,1.08,-0.09,1.04,6.23,-19.65
5200,0.30,1.02,-0.03,3.42,1.59,-14.65
5220,0.33,0.92,-0.07,6.71,6.53,-15.14
5240,0.34,0.87,-0.05,6.16,9.77,-21.18
5260,0.22,1.02,-0.07,5.68,12.08,-24.96
5280,0.25,1.07,-0.14,5.98,7.14,-16.05
5300,0.25,1.02,-0.11,5.25,4.58,-12.27
5320,0.28,0.98,-0.12,3.05,5.92,-11.84
5340,0.28,0.93,-0.11,-2.08,8.48,-17.58
5360,0.17,1.10,-0.09,-4.39,9.77,-19.10
5380,0.18,1.11,-0.06,-2.44,1.40,-8.73
5400,0.24,0.99,-0.10,0.00,-0.24,0.18
5420,0.27,0.95,-0.09,-1.10,0.73,-0.55
5440,0.27,0.95,-0.09,-2.32,2.50,-3.66
5460,0.26,0.96,-0.08,-2.38,3.36,-7.51
5480,0.22,1.01,-0.08,-1.22,2.81,-7.81
5500,0.23,1.00,-0.09,-0.43,1.10,-5.37
5520,0.24,0.99,-0.10,-0.73,1.10,-4.58
5540,0.24,0.98,-0.09,-0.98,2.20,-4.82
5560,0.24,0.98,-0.09,-1.04,3.05,-6.16
5580,0.23,0.99,-0.08,-0.92,3.66,-7.08
5600,0.21,1.01,-0.08,1.34,2.50,-5.62
5620,0.21,1.01,-0.08,1.89,1.10,-3.60
5640,0.23,0.99,-0.10,1.46,0.24,-1.71
5660,0.22,1.00,-0.09,-0.73,0.79,-2.08
5680,0.21,1.01,-0.08,-0.98,0.55,-0.98
5700,0.22,1.00,-0.09,-0.98,0.06,0.55
5720,0.22,1.00,-0.09,-0.85,-0.55,1.95
5740,0.23,0.99,-0.09,-0.37,-0.61,2.38
5760,0.23,0.99,-0.09,-0.24,-0.49,2.26
5780,0.23,0.98,-0.10,-0.92,-0.31,2.01
5800,0.23,0.98,-0.09,-1.34,-0.18,1.71
5820,0.23,0.99,-0.09,-1.40,-0.37,1.22
5840,0.24,0.98,-0.09,-1.46,0.12,0.24
5860,0.24,0.98,-0.09,-1.40,0.00,-0.31
5880,0.23,0.99,-0.09,-1.83,0.49,-0.85
5900,0.23,0.99,-0.09,-2.08,0.18,-0.12
5920,0.23,1.00,-0.08,-1.59,-0.12,0.67
5940,0.23,0.99,-0.09,-1.40,0.12,0.79
5960,0.23,0.99,-0.09,-1.46,0.12,0.73
5980,0.23,0.99,-0.09,-1.16,0.55,0.73
6000,0.23,0.99,-0.09,-1.34,0.31,0.49
6020,0.23,0.99,-0.09,-1.22,0.43,0.73
6040,0.24,0.99,-0.09,-1.10,-0.06,1.40
6060,0.24,0.98,-0.10,-1.65,-0.12,1.28
6080,0.24,0.98,-0.09,-3.11,0.43,0.37
6100,0.24,0.98,-0.09,-4.15,0.61,-0.06
6120,0.23,1.00,-0.09,-4.39,0.49,-0.31
6140,0.23,1.00,-0.08,-4.27,-0.24,0.98
6160,0.24,0.99,-0.09,-4.27,-0.18,1.40
6180,0.24,0.98,-0.09,-4.58,0.43,1.10
6200,0.24,0.99,-0.09,-5.55,0.18,0.43
6220,0.23,1.01,-0.08,-5.86,-0.18,1.71
6240,0.23,1.02,-0.08,-5.37,-1.16,2.69
6260,0.24,1.00,-0.07,-4.39,-1.46,4.27
6280,0.24,1.00,-0.06,-2.75,-1.22,5.80
6300,0.24,1.00,-0.07,-1.59,-0.24,6.23
6320,0.24,1.00,-0.08,-1.28,-1.04,7.63
6340,0.24,1.02,-0.09,-2.50,-2.38,10.56
6360,0.26,1.00,-0.10,-5.98,-2.50,11.72
6380,0.25,1.02,-0.11,-9.09,-1.34,11.72
6400,0.27,1.00,-0.10,-12.21,-2.69,13.67
6420,0.27,1.02,-0.09,-16.30,-3.85,14.34
6440,0.26,1.06,-0.06,-17.58,-5.19,17.15
6460,0.25,1.07,-0.04,-17.94,-6.47,22.16
6480,0.29,1.02,-0.06,-19.53,-5.92,28.08
6500,0.31,1.00,-0.05,-20.87,-6.29,29.36
6520,0.32,0.98,-0.02,-21.24,-6.59,30.21
6540,0.33,0.98,0.05,-18.07,-7.51,30.46
6560,0.35,0.99,0.07,-13.18,-7.08,31.49
6580,0.35,1.00,0.08,-7.14,-5.43,32.84
6600,0.38,0.95,0.03,-2.56,-4.09,35.46
6620,0.37,0.97,-0.01,-2.69,-3.17,35.28
6640,0.41,0.92,-0.03,-4.82,-3.78,36.68
6660,0.42,0.92,-0.04,-10.13,-3.05,33.75
6680,0.44,0.89,-0.00,-12.33,-4.70,33.51
6700,0.45,0.90,0.04,-13.61,-5.07,32.59
6720,0.47,0.89,0.08,-12.21,-6.77,29.91
6740,0.48,0.87,0.05,-11.17,-4.70,29.11
6760,0.48,0.88,0.05,-10.01,-5.00,27.34
6780,0.46,0.92,0.04,-9.70,-5.13,27.65
6800,0.49,0.90,0.03,-10.50,-5.00,27.89
6820,0.49,0.92,0.06,-11.17,-5.62,28.08
6840,0.51,0.89,0.07,-11.35,-6.65,30.09
6860,0.55,0.83,0.09,-10.74,-8.06,30.58
6880,0.56,0.80,0.10,-9.64,-7.51,29.30
6900,0.59,0.76,0.12,-8.30,-7.93,26.18
6920,0.59,0.75,0.10,-5.68,-3.11,18.49
6940,0.61,0.73,0.10,-3.66,-2.32,13.37
6960,0.60,0.75,0.09,-2.14,-0.12,7.63
6980,0.60,0.76,0.08,0.00,1.40,1.34
7000,0.60,0.77,0.09,0.92,1.71,-3.30
7020,0.57,0.83,0.10,1.34,2.38,-7.32
7040,0.55,0.89,0.10,2.44,1.95,-7.32
7060,0.55,0.91,0.09,2.87,1.28,-5.07
7080,0.56,0.90,0.08,2.38,1.10,-2.44
7100,0.56,0.85,0.06,1.16,1.46,-0.61
7120,0.58,0.81,0.05,0.18,1.71,-1.77
7140,0.58,0.82,0.05,-1.04,1.77,-3.30
7160,0.56,0.85,0.07,-0.55,0.98,-4.88
7180,0.56,0.85,0.09,0.06,1.65,-6.10
7200,0.57,0.83,0.10,1.22,1.59,-6.77
7220,0.57,0.84,0.08,2.14,2.32,-8.67
7240,0.57,0.83,0.09,5.19,2.75,-10.50
7260,0.58,0.80,0.11,7.75,2.38,-12.15
7280,0.57,0.79,0.10,10.13,4.33,-15.44
7300,0.54,0.82,0.05,11.84,6.29,-20.87
7320,0.55,0.83,0.05,12.70,5.49,-23.32
7340,0.54,0.83,0.04,13.37,6.10,-25.94
7360,0.54,0.76,0.00,12.21,6.71,-30.40
7380,0.48,0.92,-0.01,10.07,9.58,-34.61
7400,0.52,0.86,0.07,9.64,5.49,-34.24
7420,0.47,0.93,0.07,14.34,5.37,-35.28
7440,0.38,1.09,0.02,16.05,5.37,-31.98
7460,0.43,1.02,-0.01,14.04,1.28,-21.91
7480,0.50,0.80,-0.11,6.90,4.76,-18.31
7500,0.44,0.88,-0.07,0.67,9.70,-24.84
7520,0.38,1.06,0.00,0.73,5.55,-24.05
7540,0.38,1.04,0.07,3.72,-1.65,-12.94
7560,0.43,0.91,-0.01,5.62,3.97,-11.72
7580,0.47,0.80,-0.04,3.30,6.10,-14.10
7600,0.42,0.87,-0.08,-1.71,7.51,-22.03
7620,0.33,1.10,-0.04,-2.56,4.70,-19.78
7640,0.38,1.03,0.01,-3.48,-1.83,-10.86
7660,0.41,0.93,0.01,-2.87,0.49,-8.30
7680,0.45,0.78,-0.05,-4.21,7.63,-13.85
7700,0.36,0.97,-0.02,-6.59,10.13,-22.58
7720,0.32,1.09,0.09,-3.30,3.05,-19.78
7740,0.36,1.02,0.04,4.09,-0.73,-5.25
7760,0.38,0.95,-0.02,6.10,2.81,-2.87
7780,0.41,0.87,-0.07,4.21,3.91,-4.21
7800,0.44,0.74,-0.06,-1.22,4.82,-13.55
7820,0.39,0.87,-0.02,-7.26,7.26,-22.58
7840,0.26,1.12,0.02,-4.39,6.29,-25.76
7860,0.33,1.02,0.03,2.26,2.75,-13.12
7880,0.36,0.95,0.00,6.47,2.50,-12.02
7900,0.38,0.86,-0.04,8.06,7.26,-15.20
7920,0.42,0.84,-0.04,3.05,11.05,-27.89
7940,0.28,1.07,-0.04,0.67,7.75,-31.98
7960,0.23,1.14,-0.00,2.99,4.46,-23.99
7980,0.28,1.06,0.01,9.40,4.58,-13.37
8000,0.35,0.85,-0.04,11.90,7.87,-15.20
8020,0.33,0.87,-0.02,11.60,11.29,-24.23
8040,0.22,1.06,-0.03,12.57,9.16,-23.74
8060,0.23,1.07,-0.12,14.89,8.48,-14.16
8080,0.27,1.00,-0.13,13.31,7.51,-10.50
8100,0.29,0.96,-0.13,9.77,8.18,-11.60
8120,0.31,0.93,-0.09,4.27,11.66,-19.35
8140,0.15,1.12,-0.09,3.05,14.71,-22.77
8160,0.14,1.14,-0.05,4.88,3.72,-10.19
8180,0.26,0.97,-0.12,4.39,-0.55,1.95
8200,0.27,0.95,-0.11,0.49,-0.43,-0.06
8220,0.26,0.96,-0.09,-1.40,0.73,-3.23
8240,0.26,0.97,-0.08,-0.06,2.44,-6.90
8260,0.28,0.94,-0.10,1.40,4.21,-9.83
8280,0.28,0.93,-0.11,1.28,7.45,-14.89
8300,0.16,1.04,-0.08,3.48,8.24,-19.29
8320,0.16,1.06,-0.08,4.03,2.56,-11.35
8340,0.21,1.02,-0.09,0.92,-0.85,-4.27
8360,0.22,1.01,-0.08,0.67,0.31,-2.69
8380,0.22,0.99,-0.10,1.28,3.11,-3.05
8400,0.22,0.99,-0.10,1.77,3.42,-4.46
8420,0.21,0.99,-0.11,1.16,4.15,-5.00
8440,0.19,1.01,-0.10,-0.24,1.22,-2.50
8460,0.21,1.00,-0.10,-1.28,-0.31,0.24
8480,0.22,0.99,-0.10,-1.28,-0.49,-0.06
8500,0.22,0.99,-0.10,0.00,1.04,-0.55
8520,0.21,1.00,-0.10,0.73,1.71,-1.34
8540,0.20,1.00,-0.10,1.34,1.71,-0.85
8560,0.21,1.00,-0.11,0.79,0.43,0.92
8580,0.22,0.99,-0.11,0.43,0.55,1.34
8600,0.22,0.99,-0.10,0.43,0.85,0.85
8620,0.21,1.00,-0.10,0.73,2.01,-0.37
8640,0.20,1.00,-0.10,0.79,1.34,0.18
8660,0.20,1.00,-0.10,0.73,0.67,1.28
8680,0.22,0.99,-0.11,0.49,-0.06,2.14
8700,0.22,0.99,-0.11,0.67,0.12,2.14
8720,0.22,0.99,-0.11,0.61,0.61,2.01
8740,0.22,0.99,-0.11,0.61,0.92,1.89
8760,0.22,0.99,-0.11,0.37,0.49,1.83
8780,0.22,0.99,-0.11,0.24,0.43,1.89
8800,0.22,0.99,-0.11,0.31,0.37,1.59
8820,0.22,0.99,-0.11,0.31,0.49,1.65
8840,0.22,0.99,-0.12,0.37,1.04,1.40
8860,0.21,1.00,-0.11,-15.56,0.24,1.95
8880,0.22,0.99,-0.11,-0.18,-0.18,2.38
8900,0.22,0.99,-0.12,0.00,-0.06,2.50
8920,0.23,0.98,-0.12,-0.79,-0.12,2.62
8940,0.23,0.99,-0.12,-2.14,0.31,2.14
8960,0.22,1.00,-0.11,-2.08,0.00,2.50
8980,0.23,1.00,-0.11,-1.89,-1.04,3.66
9000,0.24,0.99,-0.11,-1.95,-1.10,4.88
9020,0.23,1.00,-0.13,-2.26,-0.79,4.64
9040,0.23,1.00,-0.11,-2.44,-2.14,5.55
9060,0.23,1.02,-0.12,-3.11,-2.44,7.57
9080,0.24,1.01,-0.10,-2.69,-2.62,9.22
9100,0.24,1.01,-0.10,-2.08,-2.08,10.62
9120,0.25,1.01,-0.11,-1.46,-1.95,11.90
9140,0.27,0.98,-0.13,-1.46,-2.14,12.63
9160,0.26,0.98,-0.15,-4.09,-1.83,12.63
9180,0.26,1.00,-0.12,-7.08,-2.62,13.55
9200,0.27,1.00,-0.11,-8.48,-3.23,15.38
9220,0.27,1.00,-0.11,-9.22,-3.17,16.72
9240,0.28,1.01,-0.11,-11.11,-4.03,19.17
9260,0.29,1.01,-0.09,-12.08,-4.82,20.94
9280,0.29,1.02,-0.08,-12.88,-4.88,23.07
9300,0.30,1.03,-0.08,-13.37,-4.88,26.61
9320,0.32,1.01,-0.07,-13.24,-6.41,30.52
9340,0.33,0.98,-0.07,-14.22,-5.92,32.23
9360,0.35,0.99,-0.07,-14.71,-6.16,33.08
9380,0.38,0.94,-0.05,-14.71,-8.30,35.03
9400,0.40,0.89,-0.04,-15.20,-7.32,34.30
9420,0.41,0.88,-0.04,-15.26,-6.04,31.68
9440,0.41,0.90,-0.03,-16.17,-4.46,28.50
9460,0.45,0.87,-0.03,-17.58,-4.88,27.28
9480,0.43,0.88,-0.07,-18.25,-3.11,24.29
9500,0.45,0.88,-0.05,-20.26,-5.07,22.28
9520,0.45,0.92,-0.02,-21.12,-6.35,21.12
9540,0.46,0.91,0.03,-20.51,-7.08,21.36
9560,0.45,0.95,0.09,-16.78,-5.80,22.52
9580,0.47,0.92,0.10,-12.88,-5.80,24.41
9600,0.49,0.89,0.08,-8.79,-4.21,25.09
9620,0.50,0.87,0.07,-4.94,-3.85,24.17
9640,0.52,0.84,0.08,-2.69,-2.87,21.73
9660,0.54,0.82,0.06,-1.77,-3.54,19.23
9680,0.53,0.84,0.02,-1.16,-2.81,13.79
9700,0.55,0.83,0.03,-1.71,-3.48,10.86
9720,0.55,0.83,0.04,-1.04,-3.23,7.63
9740,0.53,0.87,0.06,-0.49,-2.99,4.94
9760,0.55,0.85,0.06,0.67,-2.08,5.19
9780,0.56,0.81,0.05,2.01,-0.24,3.23
9800,0.56,0.81,0.03,3.72,1.53,1.16
9820,0.59,0.73,0.06,5.25,1.10,-4.52
9840,0.58,0.70,0.02,5.80,5.37,-12.51
9860,0.57,0.74,0.02,6.10,6.84,-21.36
9880,0.53,0.85,0.09,10.25,4.82,-28.20
9900,0.48,0.96,0.06,12.51,6.77,-29.36
9920,0.52,0.87,0.09,15.81,3.05,-26.49
9940,0.50,0.78,-0.05,16.24,8.18,-28.14
9960,0.44,0.94,-0.13,9.83,12.27,-31.07
9980,0.43,1.04,-0.07,7.69,5.55,-27.28
10000,0.44,0.99,-0.00,5.25,0.55,-16.36
10020,0.47,0.86,0.02,5.19,1.16,-15.01
10040,0.46,0.85,-0.01,5.19,4.76,-17.82
10060,0.47,0.79,-0.10,-1.34,7.75,-21.79
10080,0.43,0.92,-0.12,-6.53,6.35,-27.28
10100,0.43,0.94,-0.06,-10.50,3.42,-29.24
10120,0.41,0.80,0.03,-11.60,0.18,-32.10
10140,0.35,0.99,-0.05,-11.23,4.03,-32.29
10160,0.35,1.07,-0.05,-17.03,3.48,-27.77
10180,0.38,1.04,-0.04,-18.13,1.16,-24.35
10200,0.40,0.95,0.08,-14.10,-1.40,-17.46
10220,0.42,0.81,0.15,-10.07,0.92,-19.71
10240,0.29,1.01,0.13,-3.23,4.52,-25.76
10260,0.33,1.07,0.04,4.88,1.65,-13.73
10280,0.33,1.02,0.02,10.13,2.01,-9.03
10300,0.35,0.97,-0.02,11.78,3.78,-6.65
10320,0.36,0.90,0.05,12.76,3.05,-10.99
10340,0.28,1.02,0.03,15.99,5.74,-12.76
10360,0.30,1.01,0.01,19.23,1.77,-5.49
10380,0.36,0.92,-0.07,20.32,2.20,-2.93
10400,0.36,0.90,-0.08,18.01,3.60,-7.20
10420,0.35,0.92,-0.08,13.73,5.00,-12.15
10440,0.30,1.01,-0.08,9.09,5.31,-14.77
10460,0.32,0.97,-0.07,6.84,3.05,-11.23
10480,0.33,0.95,-0.10,4.21,4.33,-12.15
10500,0.34,0.94,-0.07,1.71,5.68,-17.09
10520,0.35,0.86,0.02,2.87,7.14,-21.55
10540,0.23,1.03,-0.01,6.47,12.15,-26.12
10560,0.24,1.08,-0.06,9.95,8.06,-15.87
10580,0.31,0.96,-0.15,11.60,7.45,-13.61
10600,0.30,0.98,-0.16,6.29,8.54,-16.42
10620,0.30,0.97,-0.13,0.55,8.61,-19.84
10640,0.22,1.01,-0.09,-2.81,13.67,-26.43
10660,0.09,1.18,-0.05,-0.79,8.06,-20.14
10680,0.21,1.06,-0.07,2.87,-1.10,-4.94
10700,0.26,0.98,-0.10,0.67,-0.43,-1.46
10720,0.24,0.99,-0.09,-1.04,1.46,-2.87
10740,0.25,0.99,-0.07,-0.49,2.14,-3.72
10760,0.23,0.99,-0.09,1.16,3.36,-3.91
10780,0.23,0.99,-0.10,0.67,2.99,-3.66
10800,0.23,0.99,-0.09,-0.37,1.46,-2.56
10820,0.24,0.99,-0.09,-0.79,0.92,-2.01
10840,0.24,0.99,-0.09,-0.43,1.34,-2.87
10860,0.23,0.99,-0.08,0.43,2.01,-3.23
10880,0.23,0.99,-0.09,1.40,2.20,-3.30
10900,0.23,0.99,-0.10,1.04,0.67,-1.77
10920,0.24,0.98,-0.10,0.37,0.92,-1.89
10940,0.24,0.98,-0.09,-0.24,1.71,-3.36
10960,0.23,0.99,-0.09,0.37,2.62,-5.07
10980,0.21,1.00,-0.09,0.98,2.08,-5.25
11000,0.21,1.01,-0.09,1.10,0.55,-2.32
11020,0.23,0.99,-0.10,0.31,0.06,-1.53
11040,0.23,0.99,-0.10,-0.49,0.85,-1.71
11060,0.22,0.99,-0.09,-0.85,1.34,-2.20
11080,0.22,0.99,-0.09,-0.49,1.40,-1.71
11100,0.22,1.00,-0.09,-0.31,1.28,-0.98
11120,0.22,0.99,-0.10,-0.37,0.92,-0.43
11140,0.22,0.99,-0.10,-0.37,0.92,-0.37
11160,0.23,0.99,-0.10,-0.43,1.16,-0.67
11180,0.22,0.99,-0.10,-0.43,1.22,-0.92
11200,0.22,0.99,-0.09,0.12,0.92,-0.55
11220,0.22,0.99,-0.10,0.24,1.04,-0.24
11240,0.22,0.99,-0.10,-0.24,0.92,-0.06
11260,0.23,0.99,-0.10,-0.43,0.98,-0.43
11280,0.22,0.99,-0.10,-0.67,1.16,-1.04
11300,0.22,0.99,-0.10,-0.55,1.28,-1.10
11320,0.22,1.00,-0.10,-0.37,1.10,-0.67
11340,0.22,0.99,-0.10,-0.67,1.04,-0.43
11360,0.23,0.99,-0.10,-0.73,1.04,-0.73
11380,0.23,0.99,-0.11,-0.92,1.28,-1.10
11400,0.22,0.99,-0.10,-1.53,1.04,-0.85
11420,0.22,1.00,-0.09,-1.34,0.79,-0.37
11440,0.22,0.99,-0.10,-1.10,0.79,0.18
11460,0.22,0.99,-0.10,-0.98,0.61,0.43
11480,0.22,0.99,-0.10,-0.79,0.67,0.37
11500,0.22,1.00,-0.10,-0.73,0.31,0.73
11520,0.22,1.00,-0.10,-1.40,0.06,1.71
11540,0.22,1.00,-0.10,-1.40,-0.18,2.08
11560,0.22,1.00,-0.10,-1.53,0.00,2.20
11580,0.22,1.00,-0.09,-1.16,-0.92,3.36
11600,0.21,1.01,-0.10,-0.55,-0.79,4.82
11620,0.23,1.00,-0.09,-0.43,-1.71,7.32
11640,0.23,1.01,-0.11,-0.24,-1.71,9.09
11660,0.23,1.01,-0.11,-0.61,-1.89,10.68
11680,0.23,0.99,-0.13,-1.28,-2.01,11.90
11700,0.24,1.01,-0.14,-4.64,-2.69,12.21
11720,0.26,1.00,-0.14,-8.00,-4.58,13.12
11740,0.25,1.04,-0.14,-10.62,-4.33,13.79
11760,0.24,1.08,-0.12,-12.51,-5.43,18.98
11780,0.25,1.06,-0.09,-13.31,-4.82,22.09
11800,0.26,1.07,-0.08,-13.31,-5.43,26.55
11820,0.27,1.04,-0.08,-13.55,-5.31,31.80
11840,0.31,1.01,-0.10,-15.75,-5.74,32.59
11860,0.30,1.01,-0.10,-17.21,-6.47,34.12
11880,0.32,0.99,-0.06,-19.23,-7.93,36.44
11900,0.35,0.96,-0.03,-20.45,-8.30,37.90
11920,0.38,0.91,-0.02,-20.26,-7.32,37.41
11940,0.38,0.90,-0.00,-19.84,-5.86,35.58
11960,0.40,0.91,0.02,-17.27,-4.88,33.75
11980,0.43,0.88,0.04,-15.01,-4.76,32.90
12000,0.46,0.83,0.02,-13.12,-3.11,30.33
12020,0.46,0.85,-0.01,-12.57,-1.16,24.11
12040,0.46,0.88,-0.01,-13.00,-2.32,21.24
12060,0.46,0.90,-0.01,-13.31,-3.11,19.90
12080,0.46,0.92,0.04,-13.12,-5.07,19.29
12100,0.46,0.93,0.05,-12.33,-3.78,19.65
12120,0.46,0.94,0.06,-11.60,-3.78,20.81
12140,0.48,0.90,0.06,-9.89,-3.72,22.77
12160,0.49,0.89,0.07,-8.36,-3.30,21.97
12180,0.51,0.87,0.09,-6.41,-3.48,21.36
12200,0.53,0.81,0.09,-3.17,-2.50,17.82
12220,0.55,0.79,0.06,-1.22,-0.55,12.33
12240,0.56,0.79,0.06,-0.06,-0.61,7.93
12260,0.55,0.80,0.07,1.34,0.61,1.28
12280,0.54,0.82,0.07,4.03,2.32,-3.11
12300,0.54,0.85,0.08,6.41,2.08,-6.29
12320,0.54,0.80,0.07,8.12,2.14,-8.67
12340,0.53,0.82,-0.00,8.79,5.92,-15.50
12360,0.50,0.91,-0.02,8.54,5.49,-18.01
12380,0.48,0.96,-0.00,8.30,3.11,-16.48
12400,0.48,0.96,0.05,6.71,1.95,-10.93
12420,0.49,0.91,0.05,7.14,1.89,-8.91
12440,0.51,0.85,0.05,7.93,2.38,-9.22
12460,0.51,0.80,-0.03,9.22,5.55,-14.65
12480,0.51,0.79,-0.06,8.00,5.19,-19.35
12500,0.47,0.89,-0.05,6.47,5.37,-24.11
12520,0.49,0.90,0.02,4.52,3.54,-26.55
12540,0.46,0.87,0.02,3.97,2.26,-26.98
12560,0.38,1.00,-0.06,1.95,6.16,-26.92
12580,0.46,0.87,-0.09,-7.39,4.64,-23.93
12600,0.50,0.77,-0.16,-17.88,5.13,-31.86
12620,0.32,1.11,-0.05,-25.45,5.25,-40.65
12640,0.37,1.06,0.17,-23.93,-2.26,-28.69
12660,0.35,1.05,0.24,-6.23,-3.91,-19.96
12680,0.37,0.99,0.09,2.93,4.27,-14.22
12700,0.40,0.90,-0.03,6.71,6.59,-12.02
12720,0.36,0.99,-0.06,2.87,5.74,-14.65
12740,0.36,1.00,-0.00,1.04,0.85,-11.60
12760,0.35,0.99,0.05,1.40,-1.34,-8.54
12780,0.38,0.90,0.03,4.58,-0.18,-6.41
12800,0.41,0.83,-0.03,2.32,1.89,-10.19
12820,0.38,0.87,-0.08,-3.60,2.87,-17.21
12840,0.31,1.05,-0.05,-12.39,0.12,-18.92
12860,0.32,1.07,0.03,-13.85,-3.11,-15.01
12880,0.34,0.99,0.08,-9.64,-2.99,-11.05
12900,0.34,0.96,0.06,-5.92,1.40,-10.62
12920,0.35,0.94,0.06,-3.48,2.44,-11.05
12940,0.34,0.93,0.04,-1.10,3.60,-12.02
12960,0.31,0.99,0.04,2.44,1.34,-12.51
12980,0.32,0.98,0.04,5.37,0.12,-10.38
13000,0.35,0.93,0.02,7.02,1.16,-11.05
13020,0.35,0.92,0.02,8.54,4.03,-17.64
13040,0.29,0.93,0.06,10.38,5.98,-22.71
13060,0.23,1.09,0.04,11.78,3.17,-21.48
13080,0.26,1.06,-0.02,12.88,2.87,-10.19
13100,0.30,0.98,-0.07,10.80,3.11,-9.64
13120,0.32,0.95,-0.04,8.24,3.91,-11.96
13140,0.35,0.81,0.01,6.84,5.43,-18.07
13160,0.20,1.08,0.03,9.95,7.39,-26.31
13180,0.23,1.06,-0.03,12.51,5.31,-18.19
13200,0.26,1.00,-0.11,11.60,6.96,-14.40
13220,0.25,1.01,-0.09,6.10,7.08,-16.24
13240,0.28,0.97,-0.05,4.39,8.00,-17.76
13260,0.23,1.02,-0.02,5.49,12.08,-22.46
13280,0.14,1.11,-0.04,13.24,8.18,-13.31
13300,0.22,1.01,-0.09,12.21,4.15,-2.44
13320,0.25,0.97,-0.11,8.79,3.48,-1.46
13340,0.23,1.00,-0.06,4.58,3.23,-4.39
13360,0.26,0.97,-0.06,4.82,4.21,-6.04
13380,0.25,0.96,-0.08,6.29,8.73,-11.29
13400,0.14,1.03,-0.05,10.19,6.04,-11.47
13420,0.19,1.01,-0.10,7.75,0.92,-2.87
13440,0.22,0.99,-0.10,3.54,0.06,-1.28
13460,0.21,1.00,-0.08,1.71,1.22,-2.44
13480,0.21,0.99,-0.08,3.48,2.69,-3.05
13500,0.22,0.99,-0.09,5.25,3.78,-4.27
13520,0.21,0.98,-0.10,6.04,5.00,-7.20
13540,0.16,1.02,-0.08,5.00,2.50,-5.19
13560,0.19,1.00,-0.11,2.56,0.37,-0.73
13580,0.21,0.99,-0.09,0.49,0.24,0.37
13600,0.20,1.00,-0.09,0.79,1.34,-0.79
13620,0.20,1.00,-0.09,1.59,2.38,-1.53
13640,0.20,1.00,-0.10,2.38,2.38,-1.53
13660,0.20,0.99,-0.11,1.83,1.95,-1.71
13680,0.18,1.00,-0.10,1.34,1.34,-0.98
13700,0.19,1.00,-0.11,0.24,0.73,0.24
13720,0.20,0.99,-0.11,-0.49,0.37,0.55
13740,0.20,0.99,-0.10,-0.37,0.79,-0.12
13760,0.20,1.00,-0.10,-0.31,1.04,-0.49
13780,0.19,1.00,-0.11,-0.55,1.10,-0.18
13800,0.20,1.00,-0.10,-0.92,0.49,0.31
13820,0.20,1.00,-0.10,-1.10,0.18,0.49
13840,0.20,0.99,-0.10,-0.79,0.18,0.61
13860,0.20,0.99,-0.10,-0.37,0.61,0.00
13880,0.20,0.99,-0.10,-0.55,1.04,0.12
13900,0.19,1.00,-0.10,-0.67,0.12,1.28
13920,0.20,1.00,-0.11,-0.79,-0.24,1.77
13940,0.21,0.99,-0.11,-1.53,-0.49,1.89
13960,0.20,0.99,-0.11,-2.01,-0.18,1.40
13980,0.21,0.99,-0.11,-2.14,0.31,0.79
14000,0.21,0.99,-0.11,-2.62,0.24,0.00
14020,0.20,1.00,-0.10,-2.56,0.31,0.18
14040,0.21,0.99,-0.11,-2.69,-0.31,0.98
14060,0.21,0.99,-0.11,-3.17,0.06,0.37
14080,0.21,0.99,-0.10,-2.93,0.55,-0.06
14100,0.19,1.00,-0.10,-2.62,0.31,0.31
14120,0.20,1.00,-0.10,-2.62,-0.18,1.77
14140,0.21,1.00,-0.10,-3.11,-0.31,2.08
14160,0.21,0.99,-0.10,-3.23,0.18,2.14
14180,0.21,1.00,-0.09,-3.72,0.37,2.01
14200,0.19,1.01,-0.09,-3.42,-0.18,2.32
14220,0.20,1.01,-0.09,-3.72,-1.53,6.23
14240,0.21,1.00,-0.10,-3.54,-1.28,7.63
14260,0.21,1.01,-0.09,-3.97,-1.83,9.34
14280,0.22,1.00,-0.10,-4.33,-2.01,10.93
14300,0.24,0.99,-0.10,-4.15,-2.08,10.56
14320,0.24,0.99,-0.11,-4.76,-2.08,9.52
14340,0.24,0.99,-0.10,-5.80,-2.44,9.03
14360,0.24,1.01,-0.10,-7.81,-2.56,9.03
14380,0.23,1.03,-0.09,-8.30,-2.99,10.25
14400,0.25,1.02,-0.08,-9.22,-3.72,12.21
14420,0.24,1.07,-0.08,-9.46,-3.36,16.60
14440,0.23,1.08,-0.06,-8.67,-4.09,22.22
14460,0.26,1.03,-0.07,-8.48,-4.82,27.40
14480,0.28,1.01,-0.09,-10.13,-4.39,30.09
14500,0.30,0.97,-0.10,-12.70,-4.46,30.82
14520,0.32,0.95,-0.08,-16.17,-5.49,30.40
14540,0.32,1.00,-0.04,-18.74,-7.20,29.24
14560,0.33,0.98,0.00,-18.43,-7.51,30.03
14580,0.35,0.97,-0.00,-17.40,-6.41,31.07
14600,0.35,0.97,-0.01,-16.30,-5.37,31.43
14620,0.38,0.92,-0.00,-16.05,-4.03,31.01
14640,0.41,0.89,-0.01,-17.15,-2.93,29.91
14660,0.41,0.87,-0.01,-18.19,-2.20,26.37
14680,0.42,0.87,0.01,-18.55,-1.16,23.68
14700,0.44,0.87,0.02,-18.55,-1.53,21.06
14720,0.45,0.85,0.03,-17.21,-0.98,16.17
14740,0.45,0.89,0.02,-17.64,0.31,12.57
14760,0.45,0.92,0.03,-18.43,-0.85,10.80
14780,0.45,0.90,0.04,-19.23,-1.28,10.13
14800,0.47,0.88,0.05,-18.55,-0.85,6.71
14820,0.49,0.85,0.11,-16.36,-1.59,3.78
14840,0.45,0.88,0.15,-11.66,-0.43,1.22
14860,0.42,1.03,0.16,-3.78,-1.22,3.48
14880,0.43,1.00,0.09,0.49,-0.12,9.95
14900,0.45,0.97,0.07,1.65,0.06,14.10
14920,0.45,0.98,0.08,2.93,-0.12,18.43
14940,0.46,0.95,0.08,2.81,-0.37,21.30
14960,0.48,0.91,0.07,2.32,-1.04,23.19
14980,0.47,0.93,0.06,1.34,-3.05,22.89
15000,0.49,0.91,0.06,0.67,-3.91,24.23
15020,0.50,0.86,0.04,-1.46,-4.27,25.57
15040,0.53,0.82,0.01,-4.03,-3.91,23.38
15060,0.54,0.82,0.04,-5.43,-3.66,21.24
15080,0.54,0.82,0.06,-6.53,-3.60,19.41
15100,0.54,0.86,0.07,-6.29,-3.36,16.72
15120,0.57,0.83,0.08,-5.86,-2.99,16.17
15140,0.60,0.74,0.07,-4.27,-2.08,13.24
15160,0.61,0.70,0.09,-2.50,0.43,3.05
15180,0.59,0.73,0.06,-2.56,2.20,-5.07
15200,0.57,0.82,0.12,-0.24,1.16,-11.47
15220,0.55,0.82,0.17,3.11,0.85,-14.34
15240,0.55,0.85,0.16,8.91,2.62,-17.33
15260,0.53,0.90,0.09,11.78,4.21,-18.25
15280,0.55,0.86,0.07,12.70,3.97,-17.03
15300,0.55,0.73,0.04,12.76,4.58,-22.09
15320,0.50,0.88,0.01,11.84,6.47,-27.71
15340,0.50,0.93,0.06,11.41,2.69,-26.67
15360,0.50,0.87,0.07,11.78,3.17,-26.12
15380,0.50,0.87,0.06,12.70,5.07,-28.20
15400,0.49,0.85,0.01,13.79,6.71,-29.85
15420,0.48,0.86,-0.05,10.50,7.45,-34.36
15440,0.48,0.81,-0.03,8.85,5.86,-37.05
15460,0.37,1.01,0.07,7.81,6.47,-40.47
15480,0.38,1.03,0.06,10.86,3.66,-33.94
15500,0.36,1.07,-0.02,11.72,2.56,-25.51
15520,0.40,0.98,-0.10,8.54,5.37,-18.92
15540,0.42,0.91,-0.10,0.73,5.80,-19.04
15560,0.38,0.94,-0.02,-2.08,5.19,-22.22
15580,0.33,1.04,0.08,-1.83,2.62,-20.75
15600,0.33,1.07,0.05,1.59,1.22,-9.83
15620,0.39,0.92,-0.02,3.54,3.54,-8.54
15640,0.43,0.83,-0.05,1.89,5.31,-12.21
15660,0.43,0.80,-0.07,-0.73,7.08,-19.90
15680,0.31,1.01,0.07,0.12,4.27,-27.40
15700,0.28,1.09,0.07,4.15,3.36,-21.67
15720,0.33,1.00,0.02,8.85,2.50,-13.73
15740,0.39,0.87,-0.06,10.25,7.02,-15.20
15760,0.39,0.77,-0.10,8.06,10.62,-22.40
15780,0.32,0.94,-0.04,3.78,10.74,-31.62
15800,0.21,1.14,0.05,6.71,4.70,-26.73
15820,0.28,1.04,-0.02,10.86,4.39,-15.93
15840,0.31,0.97,-0.07,12.45,6.65,-14.16
15860,0.37,0.90,-0.10,12.45,11.90,-19.10
15880,0.35,0.84,-0.03,9.52,14.34,-28.08
15900,0.19,1.13,-0.07,7.75,18.13,-33.81
15920,0.15,1.20,-0.05,11.35,11.41,-14.89
15940,0.24,1.01,-0.18,11.60,9.34,-8.36
15960,0.26,1.01,-0.14,6.53,5.86,-9.16
15980,0.26,1.00,-0.09,2.50,5.25,-9.70
16000,0.30,0.93,-0.09,0.55,9.58,-14.16
16020,0.26,0.94,-0.13,-0.43,14.89,-20.63
16040,0.16,1.03,-0.11,-0.06,14.28,-23.68
16060,0.18,1.04,-0.09,3.36,2.93,-12.76
16080,0.20,1.01,-0.09,0.92,0.67,-8.97
16100,0.20,1.01,-0.08,0.24,-0.24,-8.06
16120,0.21,0.99,-0.09,0.73,2.50,-6.90
16140,0.22,0.99,-0.10,1.71,3.42,-7.63
16160,0.20,0.98,-0.11,2.38,4.76,-9.09
16180,0.14,1.04,-0.08,2.38,0.79,-6.29
16200,0.19,1.00,-0.10,0.55,-2.32,0.24
16220,0.21,0.99,-0.10,-1.53,-1.95,0.98
16240,0.21,0.99,-0.10,-1.71,0.31,-1.34
16260,0.20,0.99,-0.10,-1.83,1.04,-2.32
16280,0.20,0.99,-0.10,-1.16,1.53,-3.30
16300,0.20,0.99,-0.10,-0.79,1.59,-3.91
16320,0.19,1.00,-0.10,-0.55,1.59,-3.85
16340,0.20,0.99,-0.10,-0.18,1.59,-4.03
16360,0.20,0.99,-0.10,0.49,2.56,-4.88
16380,0.16,1.00,-0.10,1.04,3.54,-4.21
16400,0.18,1.00,-0.10,0.79,0.73,-2.44
16420,0.19,1.00,-0.10,0.31,0.98,-0.55
16440,0.19,1.00,-0.11,-0.37,0.92,-0.73
16460,0.18,1.00,-0.10,-0.24,0.55,-0.61
16480,0.18,1.00,-0.10,-0.24,0.24,-0.12
16500,0.19,1.00,-0.11,-0.43,0.18,0.43
16520,0.19,0.99,-0.11,-0.73,-0.06,0.43
16540,0.19,0.99,-0.11,-1.10,0.55,-0.31
16560,0.18,1.00,-0.10,-0.92,0.85,-0.61
16580,0.18,1.00,-0.10,-0.73,0.61,0.00
16600,0.19,1.00,-0.10,-0.49,0.24,0.67
16620,0.19,1.00,-0.11,-0.49,0.37,0.73
16640,0.20,0.99,-0.11,-0.67,0.49,0.43
16660,0.19,0.99,-0.11,-0.92,0.73,0.12
16680,0.19,1.00,-0.10,-0.67,0.67,0.06
16700,0.19,1.00,-0.10,-0.73,0.37,0.55
16720,0.19,0.99,-0.11,-0.92,-0.06,0.79
16740,0.20,0.99,-0.11,-0.79,0.31,0.49
16760,0.20,0.99,-0.11,-0.85,0.24,0.37
16780,0.19,1.00,-0.10,-0.73,0.31,0.37
16800,0.19,1.00,-0.11,-0.85,-0.12,1.10
16820,0.20,0.99,-0.11,-0.85,-0.12,1.28
16840,0.20,0.99,-0.11,-1.16,-0.31,1.46
16860,0.20,0.99,-0.11,-1.28,-0.18,1.22
16880,0.20,0.99,-0.11,-2.87,-0.24,1.16
16900,0.20,0.99,-0.11,-3.48,-0.55,1.40
16920,0.20,1.00,-0.10,-3.97,-0.06,1.46
16940,0.19,1.00,-0.10,-3.48,-0.43,1.77
16960,0.20,1.00,-0.09,-2.99,-0.85,2.38
16980,0.20,1.00,-0.10,-2.50,-0.43,2.56
17000,0.20,1.00,-0.10,-2.32,-0.61,3.23
17020,0.20,1.00,-0.10,-2.99,-1.53,4.94
17040,0.20,1.01,-0.08,-2.32,-1.40,6.23
17060,0.20,1.01,-0.09,-1.71,-1.34,7.75
17080,0.19,1.04,-0.10,-1.65,-2.50,9.95
17100,0.18,1.06,-0.11,-2.69,-4.64,14.28
17120,0.23,1.04,-0.13,-4.58,-5.13,18.55
17140,0.24,1.03,-0.12,-5.74,-5.49,19.59
17160,0.26,1.01,-0.12,-7.57,-3.48,20.69
17180,0.25,1.01,-0.13,-9.46,-2.87,22.28
17200,0.26,1.01,-0.09,-9.95,-3.91,23.44
17220,0.27,1.00,-0.08,-10.01,-4.15,24.60
17240,0.28,1.00,-0.06,-10.19,-5.37,25.57
17260,0.30,0.98,-0.08,-10.19,-4.46,25.88
17280,0.31,0.96,-0.07,-10.50,-4.94,25.88
17300,0.33,0.94,-0.07,-10.99,-4.64,24.78
17320,0.34,0.93,-0.05,-10.50,-4.33,22.22
17340,0.34,0.94,-0.04,-10.44,-4.88,20.63
17360,0.34,0.97,-0.04,-10.25,-4.64,20.02
17380,0.36,0.94,-0.05,-10.38,-4.15,19.65
17400,0.37,0.94,-0.05,-10.99,-3.97,18.37
17420,0.36,0.96,-0.05,-12.15,-4.03,17.76
17440,0.37,0.98,-0.02,-13.24,-6.04,19.78
17460,0.38,0.97,-0.03,-13.79,-6.04,21.24
17480,0.38,0.97,-0.01,-14.53,-5.74,22.34
17500,0.39,0.98,-0.01,-15.14,-5.31,24.78
17520,0.41,0.95,0.02,-15.01,-5.98,26.98
17540,0.41,0.95,0.02,-14.53,-4.70,28.32
17560,0.42,0.92,0.04,-13.49,-4.88,29.60
17580,0.44,0.93,0.06,-11.54,-4.46,30.15
17600,0.47,0.88,0.06,-9.89,-4.03,30.70
17620,0.48,0.86,0.06,-6.96,-3.42,27.04
17640,0.52,0.80,0.03,-7.26,-2.08,23.56
17660,0.53,0.78,0.00,-6.96,-1.40,17.82
17680,0.52,0.81,-0.01,-7.45,-0.24,10.50
17700,0.51,0.86,0.04,-7.57,-2.87,8.48
17720,0.52,0.85,0.07,-7.45,-3.11,7.02
17740,0.53,0.83,0.08,-6.77,-1.83,4.39
17760,0.52,0.85,0.08,-3.72,0.85,1.04
17780,0.54,0.84,0.10,-1.28,1.04,-1.65
17800,0.55,0.77,0.09,2.32,1.89,-5.62
17820,0.54,0.76,0.06,5.92,5.00,-16.54
17840,0.55,0.74,0.03,7.20,6.10,-23.99
17860,0.55,0.73,0.02,6.65,7.20,-33.02
17880,0.40,1.02,0.15,14.65,3.23,-38.94
17900,0.42,1.01,0.09,20.57,0.98,-31.49
17920,0.44,0.95,0.04,23.25,1.71,-26.37
17940,0.44,0.85,-0.05,20.32,7.39,-23.99
17960,0.46,0.77,-0.18,11.84,9.70,-25.88
17980,0.37,1.08,-0.17,2.08,7.20,-30.33
18000,0.37,1.07,-0.01,-0.43,-2.08,-20.39
18020,0.38,1.03,0.12,2.81,-2.56,-17.09
18040,0.38,0.98,0.11,8.00,1.83,-13.98
18060,0.40,0.90,-0.05,7.69,8.85,-11.66
18080,0.44,0.84,-0.21,-1.46,5.19,-13.55
18100,0.35,1.04,-0.20,-11.54,4.21,-17.58
18120,0.37,1.00,-0.03,-15.99,-4.82,-12.82
18140,0.38,0.93,0.07,-19.29,-3.17,-13.43
18160,0.35,0.97,0.09,-17.03,-0.31,-15.26
18180,0.36,0.97,0.03,-12.88,1.04,-12.82
18200,0.34,1.00,-0.02,-11.41,2.44,-12.27
18220,0.38,0.94,0.05,-9.40,-1.28,-10.68
18240,0.37,0.90,0.07,-6.41,0.61,-12.57
18260,0.33,0.95,0.12,0.43,3.30,-18.01
18280,0.31,1.03,0.11,7.45,2.56,-16.30
18300,0.31,1.04,0.07,15.38,3.60,-11.60
18320,0.36,0.92,0.02,23.38,5.68,-8.85
18340,0.39,0.81,-0.00,24.48,7.75,-13.00
18360,0.28,0.95,-0.03,21.42,10.44,-20.32
18380,0.29,0.96,-0.12,14.77,5.31,-15.08
18400,0.31,0.97,-0.15,8.30,6.35,-16.91
18420,0.31,0.98,-0.10,2.08,4.33,-19.41
18440,0.31,0.94,-0.01,-0.43,5.74,-24.29
18460,0.20,1.12,0.02,3.42,3.66,-19.04
18480,0.23,1.07,-0.09,6.04,3.11,-8.00
18500,0.29,1.02,-0.11,5.37,2.69,-4.09
18520,0.29,0.97,-0.09,-0.49,1.77,-4.52
18540,0.30,0.93,-0.04,-2.81,1.04,-6.77
18560,0.29,0.95,-0.02,-3.11,2.75,-10.07
18580,0.31,0.92,-0.01,-0.73,6.65,-15.44
18600,0.29,0.94,-0.01,2.32,10.38,-20.32
18620,0.20,1.05,0.00,6.96,12.08,-21.48
18640,0.21,1.06,-0.10,17.52,9.89,-13.43
18660,0.23,1.04,-0.14,14.83,7.39,-9.89
18680,0.24,1.00,-0.13,7.81,6.23,-7.14
18700,0.20,1.04,-0.06,-0.18,4.58,-4.94
18720,0.19,1.05,-0.04,0.31,2.38,0.06
18740,0.25,0.99,-0.07,2.56,0.85,3.54
18760,0.26,0.95,-0.09,2.50,2.01,1.71
18780,0.26,0.96,-0.10,1.46,3.05,-1.40
18800,0.24,0.98,-0.08,0.43,2.93,-3.97
18820,0.23,1.00,-0.08,-0.49,2.14,-3.60
18840,0.23,1.00,-0.08,-0.12,0.92,-1.77
18860,0.24,0.99,-0.08,0.49,1.22,-0.92
18880,0.25,0.98,-0.09,1.04,2.50,-1.95
18900,0.24,0.98,-0.09,0.98,3.23,-3.36
18920,0.22,1.00,-0.08,1.28,2.81,-3.72
18940,0.22,1.00,-0.09,1.59,1.40,-1.53
18960,0.24,0.98,-0.09,0.24,0.43,-1.22
18980,0.24,0.98,-0.09,-0.37,0.85,-2.44
19000,0.23,0.99,-0.09,-0.79,1.10,-3.66
19020,0.22,1.00,-0.09,-0.79,0.43,-3.30
19040,0.22,1.00,-0.09,-1.22,0.43,-2.38
19060,0.22,1.00,-0.08,-1.34,0.24,-1.46
19080,0.23,0.99,-0.09,-0.92,0.61,-1.28
19100,0.23,0.99,-0.09,-0.79,1.04,-1.71
19120,0.23,0.99,-0.09,-0.24,0.67,-1.53
19140,0.22,1.00,-0.09,-0.24,0.49,-0.92
19160,0.22,0.99,-0.09,-0.49,0.24,-0.49
19180,0.23,0.99,-0.09,-0.37,0.55,-0.55
19200,0.23,0.99,-0.09,-0.92,1.40,-1.46
19220,0.22,1.00,-0.09,-0.79,1.16,-1.28
19240,0.22,1.00,-0.08,-0.55,0.49,0.06
19260,0.23,0.99,-0.09,-0.06,0.49,0.73
19280,0.23,0.98,-0.09,-0.24,0.85,0.18
19300,0.22,0.99,-0.09,-0.31,1.34,-0.49
19320,0.22,0.99,-0.09,-0.43,0.92,0.06
19340,0.22,0.99,-0.09,-0.43,0.18,0.67
19360,0.23,0.99,-0.09,-0.37,0.12,0.61
19380,0.23,0.99,-0.09,-0.24,0.31,0.18
19400,0.23,0.99,-0.09,-0.49,0.61,-0.24
19420,0.23,0.99,-0.09,-0.79,0.98,-0.12
19440,0.23,0.99,-0.09,-0.85,0.55,-0.24
19460,0.23,0.99,-0.09,-0.79,0.55,-0.37
19480,0.23,0.99,-0.09,-0.98,0.92,-0.67
19500,0.23,0.99,-0.10,-1.28,0.92,-0.79
19520,0.23,0.99,-0.10,-2.50,0.79,-1.53
19540,0.22,1.00,-0.09,-2.62,0.55,-1.40
19560,0.23,0.99,-0.09,-2.81,0.85,-1.28
19580,0.22,0.99,-0.09,-2.75,0.79,-1.16
19600,0.23,0.99,-0.09,-2.56,0.55,-0.98
19620,0.23,0.99,-0.09,-2.50,0.61,-0.79
19640,0.22,0.99,-0.09,-2.56,0.18,-0.37
19660,0.22,1.00,-0.09,-2.44,0.24,0.37
19680,0.22,1.00,-0.08,-2.32,-0.61,1.53
19700,0.23,0.99,-0.09,-2.08,-0.67,2.32
19720,0.23,1.00,-0.09,-2.62,-0.61,2.38
19740,0.23,1.00,-0.08,-2.99,-0.43,2.69
19760,0.23,1.00,-0.09,-3.05,-1.10,4.03
19780,0.23,1.00,-0.09,-4.33,-1.46,4.94
19800,0.23,1.00,-0.10,-4.94,-1.46,5.37
19820,0.23,1.00,-0.10,-5.86,-1.95,6.29
19840,0.24,1.01,-0.09,-7.08,-2.08,7.08
19860,0.24,1.01,-0.08,-6.96,-1.77,8.36
19880,0.23,1.04,-0.09,-7.32,-1.95,10.80
19900,0.24,1.05,-0.06,-7.45,-2.99,17.52
19920,0.26,1.02,-0.08,-8.18,-2.69,20.75
19940,0.29,0.97,-0.10,-10.44,-2.50,21.24
19960,0.29,0.98,-0.09,-16.66,-2.93,19.59
19980,0.29,0.98,-0.07,-19.59,-3.05,19.41
20000,0.28,1.01,-0.05,-21.12,-4.58,19.53
20020,0.31,0.99,-0.03,-20.87,-5.80,20.75
20040,0.33,0.95,-0.02,-20.81,-5.43,20.45
20060,0.32,0.97,-0.02,-20.51,-4.33,19.41
20080,0.33,0.97,-0.02,-21.61,-4.58,19.96
20100,0.32,1.00,0.00,-21.91,-5.00,21.61
20120,0.34,1.00,0.03,-21.91,-5.07,24.35
20140,0.34,1.00,0.03,-20.51,-4.03,28.08
20160,0.38,0.96,0.05,-18.98,-3.66,30.09
20180,0.39,0.95,0.04,-18.07,-2.08,30.52
20200,0.41,0.91,0.05,-16.78,-2.50,29.79
20220,0.42,0.92,0.08,-14.28,-2.38,29.66
20240,0.42,0.90,0.09,-12.63,-2.44,28.75
20260,0.44,0.91,0.09,-11.90,-2.20,27.34
20280,0.43,0.91,0.07,-10.68,-0.79,26.67
20300,0.45,0.94,0.05,-10.44,0.31,26.92
20320,0.47,0.90,0.07,-10.80,-1.46,27.71
20340,0.49,0.85,0.06,-11.17,-3.23,26.31
20360,0.50,0.87,0.07,-11.60,-3.54,23.99
20380,0.51,0.85,0.10,-10.38,-4.03,22.09
20400,0.52,0.85,0.10,-10.07,-3.30,18.98
20420,0.53,0.83,0.11,-8.91,-2.87,16.78
20440,0.55,0.82,0.11,-7.81,-2.26,13.73
20460,0.58,0.74,0.13,-5.07,-1.83,5.98
20480,0.56,0.76,0.14,-4.76,-0.67,-1.53
20500,0.56,0.75,0.15,-2.81,-1.10,-8.18
20520,0.54,0.77,0.14,-1.10,0.06,-16.60
20540,0.49,0.91,0.15,4.58,0.31,-17.27
20560,0.49,0.90,0.16,7.69,0.55,-15.26
20580,0.50,0.92,0.13,8.73,2.93,-14.10
20600,0.49,0.90,0.09,7.75,3.42,-11.96
20620,0.48,0.92,0.04,5.00,4.76,-11.47
20640,0.49,0.93,0.02,3.30,3.17,-10.01
20660,0.51,0.85,0.10,5.68,-0.18,-8.24
20680,0.49,0.80,0.12,5.62,1.65,-12.21
20700,0.48,0.79,0.14,8.30,1.40,-16.30
20720,0.47,0.89,0.08,7.87,3.60,-21.18
20740,0.49,0.86,0.05,7.14,3.17,-22.89
20760,0.46,0.91,0.03,7.39,4.64,-26.86
20780,0.46,0.88,0.08,10.93,2.93,-30.88
20800,0.40,0.94,0.11,13.24,1.77,-32.41
20820,0.36,1.08,0.13,13.12,-0.06,-28.81
20840,0.41,0.96,-0.02,11.17,3.42,-17.76
20860,0.44,0.90,-0.06,7.08,4.82,-18.19
20880,0.42,0.91,-0.04,3.66,4.64,-21.00
20900,0.40,0.94,0.10,1.89,0.98,-25.02
20920,0.32,1.02,0.13,4.82,0.49,-25.27
20940,0.35,1.02,0.12,9.09,0.12,-19.96
20960,0.38,0.96,0.03,13.61,5.13,-17.76
20980,0.35,0.98,0.00,13.98,7.14,-19.78
21000,0.32,0.99,0.03,14.22,6.53,-19.04
21020,0.30,1.02,0.03,15.56,4.58,-13.31
21040,0.35,0.96,-0.01,17.82,4.15,-8.18
21060,0.36,0.93,-0.04,17.82,5.49,-8.73
21080,0.36,0.92,-0.01,17.58,5.13,-12.02
21100,0.34,0.90,0.01,16.11,8.30,-18.37
21120,0.29,0.98,-0.02,16.05,9.28,-20.75
21140,0.29,0.98,-0.07,15.81,8.24,-18.19
21160,0.32,0.94,-0.12,11.96,7.69,-19.04
21180,0.31,0.98,-0.09,9.34,6.96,-22.77
21200,0.32,0.94,-0.04,8.24,8.00,-25.39
21220,0.21,1.08,-0.05,8.54,15.50,-31.86
21240,0.14,1.17,-0.11,11.41,10.99,-22.03
21260,0.24,1.05,-0.16,12.51,7.93,-10.74
21280,0.25,1.02,-0.14,4.82,4.33,-9.58
21300,0.25,1.00,-0.10,0.31,3.05,-8.42
21320,0.28,0.96,-0.07,-1.22,3.23,-8.97
21340,0.27,0.95,-0.08,-1.46,8.18,-13.43
21360,0.21,1.01,-0.09,-0.37,7.87,-14.22
21380,0.20,1.04,-0.09,1.22,3.60,-10.80
21400,0.22,1.02,-0.09,1.65,-0.12,-4.70
21420,0.23,1.01,-0.08,0.49,-0.61,-3.42
21440,0.23,1.00,-0.08,0.18,0.49,-2.81
21460,0.23,1.00,-0.09,-0.12,1.77,-2.26
21480,0.23,0.98,-0.10,0.06,1.46,-1.95
21500,0.22,0.99,-0.10,-0.24,0.79,-1.89
21520,0.23,0.99,-0.09,-0.18,-0.06,-1.46
21540,0.23,0.99,-0.09,-0.55,0.31,-1.95
21560,0.23,0.98,-0.10,-0.67,0.79,-2.75
21580,0.23,0.99,-0.09,-0.92,0.98,-3.54
21600,0.22,1.00,-0.09,-0.43,0.67,-2.87
21620,0.22,1.00,-0.08,-0.49,0.00,-1.65
21640,0.23,0.99,-0.09,-0.43,-0.24,-0.79
21660,0.23,0.99,-0.09,-0.49,0.43,-0.92
21680,0.23,0.98,-0.10,-0.67,0.92,-1.40
21700,0.22,0.99,-0.10,-1.10,1.16,-2.14
21720,0.25,1.00,-0.09,-1.34,0.43,-1.71
21740,0.22,1.00,-0.09,-1.28,0.00,-1.16
21760,0.23,0.99,-0.09,-0.98,0.37,-0.85
21780,0.23,0.99,-0.09,-0.73,0.85,-1.22
21800,0.21,1.00,-0.09,-0.79,0.61,-0.79
21820,0.22,1.00,-0.09,-0.67,0.06,0.24
21840,0.22,0.99,-0.09,-0.79,-0.24,0.98
21860,0.23,0.99,-0.10,-1.22,0.06,0.79
21880,0.23,0.99,-0.09,-1.71,0.06,0.55
21900,0.23,0.99,-0.09,-1.77,0.18,0.18
21920,0.22,0.99,-0.09,-1.89,-0.06,0.31
21940,0.22,1.00,-0.08,-1.71,-0.61,1.22
21960,0.23,0.99,-0.10,-2.01,-0.24,1.65
21980,0.24,0.98,-0.09,-2.75,-0.12,0.92
22000,0.24,0.98,-0.09,-3.36,0.37,-0.31
22020,0.23,0.99,-0.09,-3.36,0.79,-1.28
22040,0.22,1.00,-0.08,-3.05,0.12,-0.61
22060,0.23,0.99,-0.09,-2.75,-0.12,0.31
22080,0.23,0.99,-0.09,-3.11,0.18,-0.18
22100,0.23,0.98,-0.08,-3.36,1.04,-1.10
22120,0.23,0.99,-0.08,-3.11,0.92,-1.53
22140,0.22,1.00,-0.08,-2.81,0.43,-0.92
22160,0.22,0.97,-0.08,-2.50,0.24,0.55
22180,0.23,0.98,-0.09,-2.32,0.18,0.79
22200,0.23,0.99,-0.08,-2.93,0.49,0.12
22220,0.23,0.99,-0.08,-3.36,0.98,-0.31
22240,0.22,1.01,-0.07,-3.48,0.06,0.92
22260,0.22,1.00,-0.07,-3.05,-0.55,2.20
22280,0.23,1.00,-0.08,-2.87,15.32,2.50
22300,0.23,1.00,-0.08,-3.72,0.31,2.62
22320,0.22,1.00,-0.09,-4.21,0.00,2.81
22340,0.23,1.00,-0.08,-5.00,-1.04,4.21
22360,0.23,1.01,-0.09,-5.86,-1.28,6.29
22380,0.24,1.00,-0.08,-6.77,-2.08,7.51
22400,0.22,1.03,-0.09,-7.81,-1.59,8.67
22420,0.22,1.10,-0.08,-8.61,-3.30,15.32
22440,0.21,1.16,-0.08,-9.28,-3.17,21.61
22460,0.24,1.09,-0.03,-7.39,-5.55,30.82
22480,0.25,1.06,-0.08,-8.67,-4.70,38.70
22500,0.29,1.01,-0.09,-11.54,-6.35,41.50
22520,0.31,0.98,-0.10,-15.38,-6.04,41.87
22540,0.36,0.88,-0.08,-21.36,-6.65,39.67
22560,0.37,0.88,-0.05,-24.78,-7.08,35.77
22580,0.38,0.90,-0.00,-26.79,-7.39,32.29
22600,0.38,0.92,0.06,-24.78,-5.49,28.02
22620,0.39,0.94,0.07,-20.81,-4.46,27.59
22640,0.40,0.94,0.06,-17.64,-2.62,27.53
22660,0.41,0.93,0.03,-14.40,-1.28,27.10
22680,0.43,0.92,0.03,-12.39,-1.95,27.89
22700,0.43,0.93,0.03,-11.29,-1.34,27.89
22720,0.44,0.92,0.05,-10.38,-2.01,28.50
22740,0.47,0.88,0.05,-9.09,-1.59,27.65
22760,0.47,0.87,0.04,-8.79,-0.06,25.21
22780,0.47,0.91,0.06,-8.67,-1.34,23.38
22800,0.50,0.84,0.07,-7.69,-1.28,22.16
22820,0.50,0.86,0.08,-6.16,-0.73,18.62
22840,0.52,0.85,0.10,-4.27,-1.16,16.60
22860,0.53,0.82,0.09,-0.79,0.12,11.78
22880,0.55,0.77,0.10,1.89,0.61,7.51
22900,0.55,0.69,0.12,5.43,2.26,0.92
22920,0.54,0.70,0.04,7.93,6.10,-14.53
22940,0.50,0.85,-0.01,7.26,5.49,-22.52
22960,0.50,0.91,-0.01,6.16,3.30,-25.15
22980,0.49,0.96,0.05,6.10,-0.12,-22.16
23000,0.47,0.86,0.05,5.49,2.87,-21.97
23020,0.45,0.90,0.06,4.82,3.78,-23.62
23040,0.45,0.86,-0.02,-1.40,2.93,-22.52
23060,0.44,1.01,-0.10,-9.34,2.50,-26.61
23080,0.38,1.10,0.02,-4.21,-1.89,-20.63
23100,0.42,1.02,0.13,-4.94,0.18,-10.50
23120,0.44,0.90,0.14,-0.37,-1.22,-8.00
23140,0.39,0.98,0.05,1.95,4.70,-7.45
23160,0.41,0.98,0.01,1.46,2.20,-2.93
23180,0.43,0.94,-0.01,0.00,1.46,0.12
23200,0.45,0.88,0.00,-0.85,0.18,-0.55
23220,0.45,0.87,0.05,-1.10,0.49,-4.03
23240,0.42,0.91,0.09,0.92,0.49,-8.91
23260,0.42,0.93,0.07,2.69,0.49,-9.46
23280,0.42,0.93,0.02,3.36,1.65,-9.40
23300,0.43,0.90,-0.02,1.71,2.56,-10.99
23320,0.44,0.88,-0.02,-0.85,2.01,-12.94
23340,0.43,0.85,0.01,-3.36,0.98,-16.17
23360,0.38,0.97,0.01,-6.16,-0.85,-19.96
23380,0.36,1.04,0.04,-7.14,-2.50,-17.70
23400,0.35,1.06,0.08,-3.72,-2.08,-13.18
23420,0.38,0.95,0.06,0.24,2.44,-8.97
23440,0.41,0.83,0.03,2.38,3.11,-10.44
23460,0.37,0.92,0.01,1.16,4.58,-15.08
23480,0.35,0.98,0.01,-1.40,0.24,-13.18
23500,0.34,1.02,0.01,-2.93,0.67,-10.38
23520,0.36,0.99,0.03,-1.77,-0.06,-7.93
23540,0.38,0.94,0.06,-0.49,1.04,-8.42
23560,0.42,0.83,0.06,3.42,4.21,-12.45
23580,0.36,0.84,0.12,7.57,5.92,-20.02
23600,0.29,1.00,0.08,11.47,4.94,-23.07
23620,0.30,1.05,-0.01,14.59,4.82,-16.97
23640,0.34,1.00,-0.00,15.08,3.11,-13.00
23660,0.35,0.96,-0.03,15.08,6.59,-13.18
23680,0.36,0.83,-0.01,13.85,8.61,-19.96
23700,0.28,0.96,0.01,13.31,8.30,-25.39
23720,0.25,1.10,-0.00,13.24,3.48,-21.79
23740,0.27,1.05,-0.07,11.11,2.81,-11.05
23760,0.30,0.98,-0.06,10.19,3.11,-8.85
23780,0.32,0.92,-0.06,8.30,5.00,-9.95
23800,0.33,0.81,-0.01,7.08,7.81,-19.84
23820,0.21,1.02,0.02,8.06,9.95,-26.12
23840,0.20,1.15,0.00,12.39,5.86,-18.68
23860,0.25,1.07,-0.11,16.48,7.87,-7.08
23880,0.27,0.97,-0.14,14.47,8.24,-7.51
23900,0.26,0.99,-0.14,9.52,8.61,-9.46
23920,0.27,0.98,-0.10,2.87,6.96,-12.27
23940,0.24,0.98,-0.07,1.65,8.48,-14.34
23960,0.19,1.04,-0.09,2.38,7.14,-13.12
23980,0.23,1.01,-0.10,3.23,4.03,-8.61
24000,0.23,1.01,-0.10,0.49,2.38,-8.79
24020,0.23,1.00,-0.08,-0.61,2.08,-8.00
24040,0.23,0.99,-0.07,-0.49,3.05,-7.87
24060,0.20,1.02,-0.09,0.61,2.32,-5.86
24080,0.21,1.00,-0.09,0.12,0.67,-2.99
24100,0.23,0.99,-0.09,0.06,0.06,-2.08
24120,0.23,0.98,-0.08,0.37,0.73,-2.69
24140,0.23,0.98,-0.09,0.61,1.77,-3.97
24160,0.20,1.00,-0.08,1.10,2.08,-4.58
24180,0.21,1.01,-0.08,1.28,-0.67,-0.73
24200,0.23,0.99,-0.10,0.73,-0.79,0.61
24220,0.23,0.99,-0.09,-0.12,-0.43,-0.06
24240,0.23,0.98,-0.09,-0.73,0.98,-1.53
24260,0.23,0.98,-0.10,-0.49,1.46,-2.62
24280,0.21,1.00,-0.09,-0.55,1.16,-3.23
24300,0.22,0.99,-0.09,-0.06,0.37,-2.38
24320,0.22,0.99,-0.09,-0.43,0.18,-2.81
24340,0.22,0.99,-0.09,-0.37,0.85,-3.36
24360,0.22,0.99,-0.09,-0.37,1.40,-4.39
24380,0.20,1.00,-0.09,-0.06,0.98,-3.60
24400,0.20,1.01,-0.09,0.24,-0.06,-1.89
24420,0.21,0.99,-0.09,0.12,-0.37,-0.73
24440,0.22,0.99,-0.10,-0.31,0.49,-1.53
24460,0.22,0.99,-0.10,-0.37,0.61,-2.38
24480,0.21,0.99,-0.10,-1.04,0.73,-2.99
24500,0.21,1.00,-0.09,-0.85,0.24,-2.62
24520,0.21,1.00,-0.09,-1.04,-0.06,-1.89
24540,0.21,0.99,-0.10,-0.98,0.12,-1.83
24560,0.21,0.99,-0.09,-1.59,0.49,-2.32
24580,0.21,1.00,-0.09,-1.40,0.85,-2.69
24600,0.21,0.99,-0.09,-1.34,0.85,-2.38
24620,0.20,1.00,-0.09,-1.28,0.73,-1.77
24640,0.20,1.00,-0.09,-1.22,0.37,-0.92
24660,0.21,0.99,-0.09,-0.79,0.31,-0.31
24680,0.21,0.99,-0.09,-0.55,0.79,-0.67
24700,0.21,0.99,-0.09,-1.10,1.28,-0.98
24720,0.20,1.00,-0.09,-0.98,1.34,-0.92
24740,0.20,1.00,-0.09,-1.10,0.73,-0.18
24760,0.21,1.00,-0.09,-1.10,0.61,0.18
24780,0.21,0.99,-0.09,-1.46,0.49,0.31
24800,0.20,1.00,-0.09,-1.22,0.73,0.43
24820,0.20,1.00,-0.10,-1.22,0.73,0.49
24840,0.21,1.00,-0.09,-1.83,-0.06,0.85
24860,0.21,1.00,-0.09,-2.26,0.12,1.22
24880,0.21,1.00,-0.09,-2.38,0.12,1.04
24900,0.21,1.00,-0.09,-2.56,0.24,1.16
24920,0.20,1.00,-0.09,-2.62,-0.12,1.53
24940,0.21,1.00,-0.09,-3.42,-0.43,2.08
24960,0.21,1.00,-0.09,-3.72,-0.55,2.26
24980,0.21,1.00,-0.08,-3.78,-0.55,2.50
25000,0.21,1.00,-0.08,-3.54,-0.73,4.58
25020,0.22,1.00,-0.09,-3.85,-0.67,5.62
25040,0.21,1.01,-0.10,-4.39,-0.85,6.35
25060,0.21,1.02,-0.08,-5.37,-2.99,10.19
25080,0.22,1.03,-0.09,-5.43,-3.48,12.76
25100,0.21,1.06,-0.09,-5.25,-4.64,15.56
25120,0.22,1.08,-0.07,-4.39,-7.02,22.71
25140,0.29,1.00,-0.11,-4.88,-5.07,24.66
25160,0.28,0.97,-0.14,-7.87,-2.87,23.62
25180,0.28,0.96,-0.12,-14.59,-3.85,21.06
25200,0.28,0.99,-0.08,-18.98,-4.33,19.17
25220,0.27,1.02,-0.06,-20.63,-5.19,19.35
25240,0.29,1.00,-0.04,-21.30,-5.80,22.22
25260,0.31,0.96,-0.02,-21.30,-5.37,23.19
25280,0.33,0.95,-0.04,-20.75,-4.46,22.64
25300,0.33,0.95,-0.03,-21.18,-4.52,21.42
25320,0.33,0.96,-0.00,-21.97,-4.82,20.69
25340,0.34,0.98,0.01,-21.55,-5.43,21.12
25360,0.34,1.00,0.02,-21.18,-4.76,21.85
25380,0.36,1.00,0.05,-18.80,-4.33,25.63
25400,0.35,1.01,0.05,-16.30,-2.87,27.53
25420,0.36,1.02,0.09,-12.88,-3.05,31.56
25440,0.38,0.99,0.07,-8.06,-1.10,34.97
25460,0.40,0.96,0.08,-5.62,-1.89,37.78
25480,0.44,0.89,0.06,-5.37,-1.95,38.94
25500,0.46,0.86,0.00,-7.87,-0.92,35.22
25520,0.45,0.91,-0.00,-9.58,-0.37,32.78
25540,0.46,0.87,-0.01,-11.66,-2.69,32.90
25560,0.48,0.86,0.03,-13.79,-4.70,30.64
25580,0.50,0.89,0.09,-13.00,-6.35,30.03
25600,0.52,0.85,0.12,-11.60,-5.31,29.36
25620,0.52,0.86,0.14,-9.58,-2.69,26.25
25640,0.54,0.83,0.10,-5.98,-2.56,24.41
25660,0.56,0.81,0.07,-5.80,-1.71,21.67
25680,0.56,0.80,0.06,-5.43,-1.65,18.80
25700,0.58,0.78,0.08,-3.66,-1.34,13.31
25720,0.59,0.77,0.09,-2.20,-1.16,8.18
25740,0.59,0.77,0.11,-0.49,-0.18,3.05
25760,0.58,0.76,0.13,0.92,1.22,-4.70
25780,0.57,0.79,0.11,1.71,2.81,-10.50
25800,0.55,0.84,0.12,5.19,3.11,-14.28
25820,0.55,0.86,0.13,8.97,3.05,-15.56
25840,0.54,0.82,0.10,10.93,4.39,-16.78
25860,0.53,0.85,0.06,11.84,5.13,-18.98
25880,0.51,0.89,0.02,9.95,5.25,-20.69
25900,0.51,0.91,0.03,9.52,3.30,-20.14
25920,0.52,0.87,0.06,9.28,2.26,-19.41
25940,0.51,0.85,0.05,9.09,2.81,-21.48
25960,0.51,0.82,0.02,7.69,4.76,-24.72
25980,0.51,0.83,0.00,6.23,4.94,-28.63
26000,0.46,0.93,0.05,7.20,2.93,-31.68
26020,0.45,0.89,0.05,7.26,3.05,-30.64
26040,0.44,0.92,-0.01,6.35,2.62,-30.40
26060,0.39,1.04,-0.02,4.76,3.48,-25.88
26080,0.40,0.99,-0.00,1.89,3.54,-21.85
26100,0.42,0.96,0.03,0.61,2.81,-20.39
26120,0.39,0.96,0.05,1.04,4.27,-18.86
26140,0.39,0.99,0.02,0.55,2.01,-14.71
26160,0.41,0.96,0.01,0.73,1.34,-12.33
26180,0.43,0.90,0.02,1.77,1.95,-12.15
26200,0.39,0.93,0.05,3.60,3.48,-16.30
26220,0.37,0.97,0.06,4.94,3.72,-16.42
26240,0.37,0.99,0.03,5.92,3.23,-14.04
26260,0.41,0.91,-0.05,3.60,3.11,-10.68
26280,0.41,0.91,-0.03,1.16,3.97,-13.37
26300,0.41,0.84,0.01,1.46,2.69,-17.09
26320,0.33,1.00,0.06,2.50,3.48,-23.19
26340,0.31,1.07,0.05,5.80,1.95,-19.23
26360,0.33,1.03,-0.02,7.51,2.81,-12.94
26380,0.35,0.99,-0.06,5.13,4.03,-10.31
26400,0.39,0.87,-0.04,3.91,3.72,-12.45
26420,0.41,0.80,-0.02,2.44,4.76,-19.04
26440,0.34,0.88,0.05,2.56,5.43,-30.27
26460,0.25,1.13,0.09,9.03,0.12,-22.89
26480,0.28,1.04,0.00,13.85,3.72,-13.55
26500,0.33,0.94,-0.04,16.05,5.00,-13.43
26520,0.35,0.83,-0.08,13.61,9.03,-18.98
26540,0.32,0.92,-0.05,9.52,10.99,-28.38
26560,0.22,1.06,-0.02,9.89,9.89,-30.88
26580,0.21,1.12,-0.06,13.55,5.43,-13.67
26600,0.27,1.01,-0.13,14.10,7.69,-6.16
26620,0.27,0.99,-0.15,9.70,6.29,-7.14
26640,0.28,0.98,-0.09,2.87,4.76,-9.52
26660,0.29,0.94,-0.05,1.22,6.35,-12.33
26680,0.23,1.00,-0.06,1.59,9.46,-14.47
26700,0.22,1.02,-0.09,2.93,5.37,-9.09
26720,0.25,0.98,-0.11,2.69,3.60,-6.65
26740,0.24,1.00,-0.09,1.10,2.87,-8.00
26760,0.24,1.00,-0.07,0.37,3.23,-8.42
26780,0.24,0.98,-0.07,1.10,5.43,-9.70
26800,0.21,1.00,-0.09,2.20,5.55,-9.83
26820,0.19,1.03,-0.09,3.17,0.98,-5.43
26840,0.22,1.00,-0.09,1.77,0.49,-3.78
26860,0.23,1.00,-0.09,0.98,0.18,-3.48
26880,0.23,0.99,-0.09,0.06,1.28,-4.09
26900,0.22,0.99,-0.09,-0.24,1.83,-4.64
26920,0.22,0.99,-0.09,0.31,1.46,-4.39
26940,0.21,1.00,-0.08,0.43,0.67,-3.54
26960,0.22,1.00,-0.09,0.49,-0.31,-0.85
26980,0.22,1.00,-0.09,0.43,-0.31,-0.43
27000,0.23,0.99,-0.09,0.18,0.31,-0.43
27020,0.22,0.99,-0.09,0.12,0.67,-0.85
27040,0.22,0.99,-0.09,-0.37,0.37,-0.73
27060,0.22,0.99,-0.09,-0.55,-0.18,-0.37
27080,0.23,0.99,-0.09,-0.98,-0.18,-0.79
27100,0.23,0.98,-0.09,-1.16,0.24,-1.34
27120,0.22,0.99,-0.09,-1.40,0.67,-2.20
27140,0.21,1.00,-0.09,-1.16,0.24,-1.77
27160,0.21,1.00,-0.09,-0.67,-0.31,-0.61
27180,0.22,1.00,-0.09,-0.79,-0.67,0.43
27200,0.23,0.99,-0.06,-1.22,0.00,-0.12
27220,0.23,0.98,-0.09,-1.65,0.67,-0.85
27240,0.22,0.99,-0.09,-1.59,0.98,-1.53
27260,0.21,1.00,-0.09,-1.40,0.37,-0.79
27280,0.22,1.00,-0.09,-1.22,0.12,-0.31
27300,0.22,0.99,-0.09,-1.28,0.24,0.06
27320,0.22,0.99,-0.09,-1.34,0.43,-0.24
27340,0.22,0.99,-0.09,-1.53,0.73,-0.73
27360,0.22,0.99,-0.09,-1.59,0.73,-0.73
27380,0.21,1.00,-0.08,-1.53,0.49,-0.49
27400,0.22,0.99,-0.09,-1.34,0.49,0.18
27420,0.23,0.99,-0.09,-1.34,0.67,-0.43
27440,0.22,0.99,-0.09,-1.46,0.79,-0.67
27460,0.22,1.00,-0.09,-1.59,0.98,-0.79
27480,0.22,1.00,-0.09,-1.22,0.79,-0.37
27500,0.22,0.99,-0.09,-1.04,0.85,-0.18
27520,0.23,0.99,-0.09,-0.98,1.04,-0.49
27540,0.22,0.99,-0.09,-1.10,1.22,-0.85
27560,0.22,1.00,-0.09,-1.16,0.92,-0.61
27580,0.22,1.00,-0.09,-0.98,0.61,-0.06
27600,0.22,0.99,-0.09,-0.85,0.79,-0.12
27620,0.22,0.99,-0.09,-1.28,1.10,-0.49
27640,0.22,1.00,-0.09,-1.65,0.85,-0.24
27660,0.22,1.00,-0.09,-1.65,0.49,0.18
27680,0.22,1.00,-0.09,-1.89,0.18,0.73
27700,0.22,1.00,-0.09,-2.14,0.18,1.40
27720,0.22,1.00,-0.09,-2.44,0.31,1.28
27740,0.22,1.00,-0.09,-2.87,0.06,1.89
27760,0.22,1.00,-0.09,-3.30,0.00,2.20
27780,0.22,1.00,-0.08,-3.36,0.12,2.62
27800,0.21,1.01,-0.08,-3.23,-0.55,3.91
27820,0.23,1.00,-0.08,-3.17,-0.73,5.80
27840,0.22,1.02,-0.09,-3.42,-1.34,8.24
27860,0.21,1.05,-0.09,-3.85,-2.50,10.93
27880,0.23,1.03,-0.09,-3.36,-3.54,14.40
27900,0.26,1.01,-0.11,-3.97,-3.36,17.09
27920,0.26,1.03,-0.11,-5.80,-3.30,18.07
27940,0.24,1.05,-0.12,-7.45,-3.36,20.87
27960,0.25,1.05,-0.11,-11.47,-4.64,25.57
27980,0.27,1.03,-0.09,-13.31,-5.68,28.56
28000,0.27,1.05,-0.09,-15.01,-5.62,31.01
28020,0.30,0.97,-0.07,-18.43,-6.41,34.55
28040,0.33,0.95,-0.07,-21.00,-6.35,34.36
28060,0.33,0.94,-0.06,-23.80,-5.86,32.78
28080,0.36,0.92,-0.03,-26.37,-6.23,30.58
28100,0.36,0.93,0.02,-23.86,-5.74,30.40
28120,0.39,0.90,0.03,-22.22,-5.49,30.70
28140,0.41,0.88,0.04,-19.29,-3.91,26.12
28160,0.41,0.92,0.04,-15.14,-1.95,23.62
28180,0.42,0.93,0.06,-13.37,-1.95,23.32
28200,0.42,0.93,0.04,-10.19,-1.16,22.77
28220,0.44,0.92,0.04,-8.00,-0.92,22.46
28240,0.45,0.88,0.04,-7.63,-1.16,21.85
28260,0.45,0.86,0.02,-8.12,0.12,19.65
28280,0.44,0.93,0.02,-8.06,0.24,16.97
28300,0.47,0.90,0.04,-8.73,-2.69,17.88
28320,0.49,0.85,0.04,-8.85,-2.26,16.66
28340,0.49,0.86,0.08,-7.69,-1.28,12.39
28360,0.48,0.90,0.09,-5.98,-0.79,10.93
28380,0.50,0.88,0.09,-3.66,-0.61,10.13
28400,0.50,0.88,0.07,-0.49,1.16,7.32
28420,0.50,0.87,0.07,0.92,1.46,5.98
28440,0.51,0.86,0.05,1.34,1.71,4.33
28460,0.51,0.83,0.04,2.08,0.98,1.34
28480,0.52,0.83,0.04,1.95,1.83,-2.44
28500,0.51,0.84,0.03,2.01,2.01,-6.16
28520,0.52,0.83,0.03,2.50,2.44,-11.90
28540,0.50,0.84,0.10,5.25,1.40,-14.71
28560,0.49,0.87,0.10,7.93,2.56,-18.07
28580,0.48,0.88,0.09,11.35,2.20,-21.06
28600,0.48,0.84,0.05,14.28,3.42,-21.79
28620,0.43,0.92,-0.02,13.98,5.07,-24.23
28640,0.45,0.91,-0.06,11.96,2.26,-22.09
28660,0.46,0.89,-0.02,7.63,1.28,-21.61
28680,0.43,0.91,0.04,5.19,3.05,-23.44
28700,0.39,0.96,0.12,7.87,1.71,-23.68
28720,0.41,0.95,-0.00,12.51,4.27,-18.98
28740,0.43,0.90,-0.06,11.35,6.77,-18.55
28760,0.42,0.89,-0.06,8.85,8.12,-22.28
28780,0.30,1.06,0.01,6.16,7.51,-26.12
28800,0.36,1.02,-0.01,8.54,0.37,-18.25
28820,0.37,0.97,-0.09,8.00,3.42,-13.67
28840,0.38,0.96,-0.06,3.97,2.99,-15.81
28860,0.40,0.88,-0.06,1.65,3.54,-17.76
28880,0.37,0.88,-0.02,-2.32,4.70,-23.32
28900,0.32,1.03,-0.02,-2.81,2.01,-21.73
28920,0.32,1.03,-0.01,-0.79,0.31,-15.93
28940,0.33,0.99,0.00,1.53,0.98,-14.10
28960,0.36,0.94,0.00,3.66,5.49,-16.97
28980,0.33,0.90,-0.01,6.35,9.09,-23.38
29000,0.24,1.05,-0.02,7.87,7.93,-23.86
29020,0.27,1.08,-0.05,8.85,3.66,-14.89
29040,0.30,1.02,-0.05,9.70,1.53,-7.08
29060,0.32,0.97,-0.06,9.83,3.91,-7.32
29080,0.33,0.92,-0.08,8.54,5.98,-10.31
29100,0.26,1.02,-0.08,6.59,6.10,-12.76
29120,0.28,1.01,-0.08,6.47,2.81,-8.00
29140,0.29,0.98,-0.10,5.37,2.44,-5.92
29160,0.31,0.96,-0.07,2.93,2.87,-8.18
29180,0.33,0.89,-0.05,2.62,4.52,-11.60
29200,0.32,0.90,-0.06,2.81,9.28,-18.62
29220,0.20,1.06,-0.11,4.27,12.21,-22.16
29240,0.23,1.03,-0.14,3.85,8.30,-16.91
29260,0.24,1.02,-0.11,0.98,5.19,-13.61
29280,0.24,1.01,-0.08,-0.79,4.58,-10.01
29300,0.23,1.00,-0.08,-0.98,5.86,-9.52
29320,0.19,1.05,-0.06,0.00,5.07,-7.26
29340,0.21,1.03,-0.09,1.28,0.37,0.73
29360,0.25,0.98,-0.11,0.12,-0.98,2.14
29380,0.25,0.97,-0.10,-2.44,-0.73,1.40
29400,0.25,0.98,-0.08,-3.36,-0.55,-0.43
29420,0.24,0.99,-0.08,-3.05,0.49,-1.46
29440,0.24,0.98,-0.09,-2.62,0.31,-1.71
29460,0.24,0.99,-0.08,-2.93,-0.24,-1.40
29480,0.24,1.00,-0.07,-2.32,-0.61,-0.31
29500,0.25,0.99,-0.07,-1.59,-0.18,0.37
29520,0.25,0.98,-0.08,-0.98,0.24,0.31
29540,0.25,0.98,-0.09,-0.92,0.79,-0.24
29560,0.24,0.99,-0.08,-1.10,0.43,-0.85
29580,0.24,1.00,-0.08,-1.34,0.12,-0.49
29600,0.24,0.99,-0.08,-1.22,-0.43,0.37
29620,0.25,0.98,-0.08,-1.34,-0.18,0.31
29640,0.25,0.98,-0.08,-1.65,0.24,-0.61
29660,0.24,0.99,-0.08,-1.77,0.31,-1.46
29680,0.24,1.00,-0.08,-1.59,0.06,-0.73
29700,0.25,0.98,-0.08,-1.22,0.00,0.00
29720,0.25,0.97,-0.08,-1.83,0.61,-1.22
29740,0.25,0.97,-0.08,-2.08,1.28,-2.56
29760,0.24,0.99,-0.08,-2.26,1.34,-3.42
29780,0.23,1.01,-0.07,-1.40,0.43,-1.34
29800,0.24,0.99,-0.08,-0.92,0.12,0.18
29820,0.25,0.98,-0.09,-1.16,0.37,0.12
29840,0.25,0.97,-0.08,-1.59,0.92,-1.71
29860,0.23,1.00,-0.07,-1.46,1.10,-1.83
29880,0.23,1.00,-0.08,-0.67,0.73,-0.43
29900,0.24,0.99,-0.08,-0.67,0.24,0.67
29920,0.25,0.98,-0.08,-1.22,0.61,0.18
29940,0.25,0.98,-0.08,-1.34,0.92,-0.67
29960,0.24,0.99,-0.08,-1.34,0.79,-0.73
29980,0.24,0.99,-0.07,-0.92,0.24,0.18
30000,0.25,0.98,-0.08,-0.85,0.61,0.18
30020,0.25,0.99,-0.08,-0.92,0.61,-0.24
30040,0.24,0.99,-0.08,-1.22,0.79,-0.49
30060,0.24,1.00,-0.08,-1.28,0.37,-0.18
30080,0.25,0.99,-0.08,-1.40,0.06,0.43
30100,0.25,0.98,-0.08,-1.59,0.12,0.12
30120,0.24,0.99,-0.08,-1.83,0.73,-0.37
30140,0.25,0.98,-0.08,-1.65,0.85,-0.37
30160,0.24,0.99,-0.08,-2.20,0.43,-0.12
30180,0.24,0.99,-0.08,-1.83,0.37,0.12
30200,0.25,0.99,-0.08,-1.83,0.49,0.24
30220,0.25,0.98,-0.08,-1.89,0.92,-0.18
30240,0.24,0.99,-0.08,-2.44,1.10,-0.98
30260,0.24,1.00,-0.07,-2.44,0.43,-0.49
30280,0.24,1.00,-0.07,-2.38,0.24,0.43
30300,0.25,0.99,-0.08,-2.14,0.49,1.16
30320,0.25,0.98,-0.08,-2.20,0.49,0.73
30340,0.25,0.98,-0.07,-2.26,0.67,0.31
30360,0.24,1.00,-0.07,-1.89,0.55,0.55
30380,0.24,1.00,-0.08,-1.53,0.06,1.83
30400,0.24,1.00,-0.08,-2.08,-0.55,2.38
30420,0.24,1.01,-0.08,-2.81,-1.46,3.85
30440,0.25,1.01,-0.08,-3.54,-1.46,5.49
30460,0.25,1.00,-0.08,-3.78,-1.83,6.90
30480,0.24,1.03,-0.07,-3.78,-2.26,9.52
30500,0.26,1.02,-0.08,-3.85,-2.75,12.27
30520,0.28,0.99,-0.09,-4.64,-3.23,13.61
30540,0.28,1.00,-0.09,-8.30,-2.56,14.22
30560,0.28,1.00,-0.08,-9.95,-3.05,15.26
30580,0.28,1.00,-0.07,-11.72,-3.66,16.11
30600,0.29,1.00,-0.06,-13.43,-4.27,17.82
30620,0.30,1.00,-0.05,-14.10,-4.46,18.31
30640,0.30,1.00,-0.04,-14.71,-4.94,19.23
30660,0.31,1.00,-0.04,-15.26,-5.25,21.42
30680,0.32,1.00,-0.04,-16.66,-4.27,22.34
30700,0.32,1.00,-0.04,-17.64,-4.39,23.74
30720,0.30,1.05,-0.04,-18.86,-4.88,26.73
30740,0.38,0.93,-0.04,-23.44,-6.23,32.47
30760,0.39,0.91,-0.02,-25.76,-5.43,30.46
30780,0.38,0.92,0.04,-25.45,-5.37,28.56
30800,0.40,0.92,0.12,-22.22,-5.74,27.40
30820,0.43,0.89,0.10,-17.76,-4.21,26.73
30840,0.42,0.90,0.08,-14.40,-1.77,24.29
30860,0.43,0.92,0.07,-11.41,-0.24,23.01
30880,0.45,0.89,0.04,-10.93,0.37,22.71
30900,0.46,0.89,0.04,-10.68,0.43,21.30
30920,0.46,0.91,0.08,-9.58,-0.92,20.75
30940,0.47,0.88,0.08,-8.54,-0.98,20.87
30960,0.46,0.91,0.08,-7.57,-0.67,19.84
30980,0.49,0.87,0.10,-5.68,-0.98,18.92
31000,0.51,0.84,0.09,-4.27,-0.55,16.54
31020,0.52,0.83,0.09,-2.32,-0.06,12.76
31040,0.54,0.78,0.11,0.98,-0.24,5.55
31060,0.54,0.75,0.13,3.72,0.85,-0.31
31080,0.55,0.75,0.09,4.76,2.75,-7.81
31100,0.55,0.75,0.07,5.31,3.78,-20.45
31120,0.50,0.85,0.09,6.84,4.09,-27.53
31140,0.45,0.95,0.11,10.38,3.17,-29.36
31160,0.44,0.99,0.09,12.39,3.05,-26.86
31180,0.47,0.87,0.02,11.54,3.97,-23.68
31200,0.50,0.77,-0.02,7.26,5.43,-27.04
31220,0.41,0.90,-0.04,3.11,6.10,-33.39
31240,0.32,1.16,0.03,1.04,0.67,-31.92
31260,0.40,1.04,0.11,2.87,-4.27,-20.32
31280,0.39,0.98,0.06,3.91,1.95,-17.33
31300,0.40,0.91,0.02,2.93,5.68,-16.66
31320,0.38,0.94,-0.00,0.98,3.23,-16.42
31340,0.39,0.97,-0.06,-4.15,1.59,-15.26
31360,0.35,0.99,0.05,-4.64,-2.75,-10.62
31380,0.39,0.94,0.07,-4.58,-1.16,-9.46
31400,0.44,0.83,0.11,-1.28,-0.43,-12.94
31420,0.40,0.82,0.11,5.19,3.05,-22.89
31440,0.34,0.96,0.08,8.48,0.18,-24.41
31460,0.36,0.98,0.00,9.16,0.49,-23.13
31480,0.33,1.01,0.02,10.07,0.67,-21.55
31500,0.35,0.89,0.04,12.15,4.76,-22.40
31520,0.27,0.99,0.05,15.63,5.74,-24.48
31540,0.27,1.10,0.02,18.37,2.50,-18.86
31560,0.32,1.00,-0.05,15.93,2.01,-9.22
31580,0.29,1.03,-0.08,11.05,3.97,-9.83
31600,0.35,0.90,-0.04,7.57,2.99,-9.46
31620,0.30,0.92,-0.02,3.66,4.82,-19.41
31640,0.26,1.05,0.03,4.15,1.04,-19.41
31660,0.28,1.04,0.02,6.16,0.24,-14.10
31680,0.31,0.97,-0.03,7.87,2.87,-12.33
31700,0.33,0.89,-0.02,10.31,5.86,-14.77
31720,0.37,0.79,-0.04,10.68,9.58,-22.40
31740,0.12,1.19,-0.02,11.78,15.14,-34.36
31760,0.08,1.29,-0.01,18.37,9.58,-17.21
31780,0.23,1.09,-0.14,20.63,6.16,0.55
31800,0.27,0.97,-0.16,8.42,3.42,1.16
31820,0.29,0.93,-0.10,1.22,2.50,-1.95
31840,0.31,0.91,-0.07,-1.40,3.97,-7.32
31860,0.31,0.90,-0.04,-0.12,11.11,-18.62
31880,0.10,1.12,-0.06,3.85,12.08,-20.63
31900,0.17,1.08,-0.06,9.28,0.37,-8.42
31920,0.24,0.98,-0.13,5.68,-15.56,-3.36
31940,0.25,0.98,-0.09,-1.04,0.31,-5.00
31960,0.24,0.98,-0.07,-2.08,1.65,-6.41
31980,0.24,0.99,-0.06,-0.12,3.23,-7.87
32000,0.26,0.97,-0.09,2.87,6.23,-10.62
32020,0.19,1.00,-0.08,4.82,8.54,-13.79
32040,0.13,1.06,-0.06,4.70,4.33,-10.31
32060,0.21,0.99,-0.12,0.31,-0.24,-0.49
32080,0.22,0.99,-0.10,-1.89,-0.92,-1.10
32100,0.21,1.00,-0.07,-1.95,0.00,-2.44
32120,0.21,0.99,-0.08,0.12,1.59,-2.38
32140,0.20,1.00,-0.09,0.98,1.40,-2.50
32160,0.20,1.00,-0.10,0.92,1.16,-2.01
32180,0.21,0.99,-0.09,-1.28,0.49,-0.73
32200,0.21,0.99,-0.09,-1.53,0.37,-0.67
32220,0.21,1.00,-0.08,-1.53,0.85,-0.98
32240,0.21,1.00,-0.09,-0.49,0.85,-1.10
32260,0.20,1.00,-0.09,-0.18,0.31,0.06
32280,0.20,1.00,-0.09,-0.49,-0.12,1.04
32300,0.21,0.99,-0.10,-0.79,-0.37,1.16
32320,0.21,0.99,-0.09,-1.40,-0.12,0.67
32340,0.21,0.99,-0.09,-1.46,0.24,0.06
32360,0.21,0.99,-0.09,-1.22,0.31,-0.06
32380,0.21,0.99,-0.09,-1.40,0.31,-0.12
32400,0.21,0.99,-0.09,-1.46,0.43,-0.31
32420,0.21,0.99,-0.09,-1.34,0.61,-0.43
32440,0.21,1.00,-0.09,-1.10,0.79,-0.55
32460,0.20,1.00,-0.08,-0.79,0.61,-0.06
32480,0.21,1.00,-0.09,-0.67,0.12,0.67
32500,0.21,0.99,-0.09,-0.79,0.37,0.18
32520,0.21,0.99,-0.09,-1.22,0.55,-0.18
32540,0.21,1.00,-0.08,-1.59,0.67,-0.43
32560,0.21,1.00,-0.08,-1.10,0.61,0.18
32580,0.21,0.99,-0.09,-0.92,0.37,0.67
32600,0.22,0.99,-0.09,-1.10,0.24,0.55
32620,0.22,0.99,-0.09,-1.10,0.98,-0.12
32640,0.21,1.00,-0.09,-0.92,1.40,-0.67
32660,0.20,1.00,-0.08,-0.92,0.55,0.06
32680,0.21,1.00,-0.09,-0.67,0.24,1.53
32700,0.22,0.99,-0.09,-0.61,0.37,1.10
32720,0.22,0.99,-0.09,-0.98,0.67,0.67
32740,0.21,0.99,-0.09,-0.92,1.04,0.31
32760,0.21,1.00,-0.09,-0.85,0.49,0.98
32780,0.22,0.99,-0.09,-0.79,0.18,1.53
32800,0.22,0.99,-0.09,-1.16,0.43,1.46
32820,0.21,1.00,-0.09,-1.22,0.79,0.98
32840,0.21,0.99,-0.09,-0.98,0.61,1.16
32860,0.22,0.99,-0.09,-1.34,0.61,1.71
32880,0.22,0.99,-0.09,-1.16,0.31,2.14
32900,0.22,0.99,-0.08,-1.40,0.18,2.20
32920,0.23,0.99,-0.10,-1.22,0.49,2.20
32940,0.22,0.99,-0.09,-1.40,0.67,2.20
32960,0.22,1.00,-0.09,-1.28,0.43,2.32
32980,0.23,0.99,-0.09,-1.28,0.18,3.11
33000,0.24,0.98,-0.10,-1.83,0.12,2.87
33020,0.23,0.99,-0.09,-2.50,0.61,2.32
33040,0.22,1.01,-0.08,-2.38,0.49,2.56
33060,0.22,1.02,-0.08,-2.14,-0.67,5.62
33080,0.23,1.01,-0.09,-2.87,-1.34,7.69
33100,0.22,1.02,-0.10,-3.05,-1.59,9.58
33120,0.22,1.04,-0.08,-4.15,-4.03,14.89
33140,0.26,1.03,-0.08,-2.87,-4.94,20.39
33160,0.24,1.04,-0.12,-3.54,-3.11,22.89
33180,0.29,0.99,-0.12,-5.98,-3.23,24.35
33200,0.29,0.98,-0.14,-10.93,-3.30,24.35
33220,0.28,1.00,-0.11,-14.95,-3.72,23.38
33240,0.29,1.01,-0.07,-16.91,-5.19,24.05
33260,0.29,1.02,-0.05,-17.21,-5.92,26.67
33280,0.31,1.01,-0.02,-15.87,-7.45,29.97
33300,0.32,0.99,-0.03,-14.40,-6.53,32.35
33320,0.36,0.95,-0.04,-14.34,-6.65,33.75
33340,0.36,0.94,-0.04,-14.65,-6.10,33.51
33360,0.39,0.91,-0.03,-15.75,-5.68,32.71
33380,0.40,0.91,-0.03,-17.52,-4.21,29.17
33400,0.39,0.94,0.01,-16.66,-4.39,28.02
33420,0.41,0.94,0.04,-16.11,-4.82,28.63
33440,0.42,0.92,0.04,-14.16,-3.42,28.63
33460,0.44,0.89,0.02,-12.82,-1.53,27.59
33480,0.46,0.86,0.02,-11.84,-1.40,25.76
33500,0.46,0.87,0.01,-10.25,-2.14,22.09
33520,0.48,0.86,0.03,-9.22,-1.59,20.45
33540,0.49,0.88,0.03,-8.30,-1.65,18.25
33560,0.49,0.89,0.04,-7.69,-1.04,16.11
33580,0.49,0.87,0.03,-6.77,-1.53,15.08
33600,0.49,0.89,0.04,-6.23,-1.46,13.98
33620,0.51,0.85,0.07,-5.37,-2.08,13.24
33640,0.53,0.84,0.08,-3.36,-1.46,10.07
33660,0.52,0.81,0.06,-1.59,-0.06,7.26
33680,0.50,0.89,0.06,-1.16,0.24,4.39
33700,0.51,0.90,0.03,-2.01,0.85,4.76
33720,0.50,0.89,0.02,-1.83,0.37,4.58
33740,0.50,0.90,0.02,-2.93,0.12,4.94
33760,0.52,0.87,0.04,-4.39,-0.12,5.55
33780,0.53,0.87,0.05,-4.76,0.18,4.70
33800,0.53,0.86,0.05,-4.33,0.92,4.09
33820,0.56,0.79,0.07,-1.04,1.46,1.34
33840,0.56,0.77,0.09,0.79,2.62,-3.72
33860,0.56,0.78,0.07,2.26,4.21,-10.01
33880,0.53,0.86,0.07,7.02,3.91,-17.33
33900,0.51,0.86,0.05,9.40,2.99,-18.74
33920,0.51,0.88,0.06,10.93,2.62,-20.20
33940,0.51,0.86,0.04,12.45,3.91,-22.95
33960,0.48,0.90,0.02,13.79,3.23,-23.62
33980,0.49,0.87,0.01,13.37,2.75,-23.62
34000,0.50,0.83,-0.01,12.21,5.07,-28.26
34020,0.46,0.85,0.01,12.33,4.70,-31.37
34040,0.43,0.92,0.02,12.45,4.82,-33.08
34060,0.43,0.91,-0.03,12.82,4.33,-32.29
34080,0.42,0.95,-0.02,12.63,3.97,-31.68
34100,0.45,0.85,-0.01,12.45,6.53,-33.02
34120,0.42,0.79,0.04,12.15,8.85,-37.54
34140,0.37,0.92,-0.04,9.83,11.05,-42.91
34160,0.31,1.07,-0.09,9.40,11.96,-42.79
34180,0.30,1.07,-0.03,13.06,8.06,-37.05
34200,0.30,1.00,-0.03,15.63,10.99,-32.04
34220,0.27,1.04,-0.07,16.78,9.83,-28.81
34240,0.33,0.96,-0.15,14.59,9.58,-23.50
34260,0.29,1.05,-0.17,5.55,8.48,-24.41
34280,0.31,1.00,-0.12,1.40,6.59,-22.34
34300,0.25,1.04,-0.05,0.18,7.69,-22.28
34320,0.23,1.09,-0.07,2.56,4.27,-12.63
34340,0.31,0.94,-0.10,2.81,5.49,-10.68
34360,0.32,0.89,-0.15,0.37,7.51,-15.01
34380,0.30,0.94,-0.13,-6.90,10.01,-24.29
34400,0.21,1.07,-0.06,-6.90,8.30,-22.28
34420,0.19,1.08,-0.05,-4.15,4.76,-14.59
34440,0.24,1.01,-0.08,-1.65,1.83,-7.32
34460,0.29,0.93,-0.10,-2.26,4.94,-9.03
34480,0.26,0.96,-0.12,-4.21,8.24,-14.22
34500,0.17,1.06,-0.06,-4.21,8.24,-16.36
34520,0.17,1.07,-0.05,1.53,-0.98,-2.56
34540,0.25,0.98,-0.10,1.46,-2.62,2.50
34560,0.25,0.96,-0.10,-0.98,-1.10,0.92
34580,0.25,0.97,-0.09,-3.54,0.18,-2.99
34600,0.23,0.98,-0.09,-3.85,0.92,-5.07
34620,0.21,1.01,-0.07,-3.42,0.55,-4.88
34640,0.22,1.00,-0.07,-2.99,-1.89,-0.67
34660,0.24,0.99,-0.08,-3.11,-1.77,0.24
34680,0.24,0.98,-0.08,-3.11,-0.98,-0.73
34700,0.24,0.98,-0.07,-2.75,0.61,-3.11
34720,0.22,1.00,-0.07,-2.20,1.22,-3.66
34740,0.22,1.00,-0.07,-1.46,0.61,-2.44
34760,0.23,0.99,-0.07,-1.53,-0.18,-0.79
34780,0.24,0.98,-0.08,-1.77,0.43,-1.95
34800,0.23,0.99,-0.07,-2.01,1.10,-3.36
34820,0.22,0.99,-0.07,-1.46,1.22,-3.85
34840,0.22,0.99,-0.07,0.00,1.10,-3.72
34860,0.22,1.00,-0.07,0.61,0.55,-3.36
34880,0.22,1.00,-0.08,-0.12,0.43,-2.75
34900,0.22,0.99,-0.09,-2.93,0.00,-2.75
34920,0.21,1.00,-0.07,-4.88,-0.43,-3.11
34940,0.21,1.00,-0.07,-5.00,-1.16,-2.26
34960,0.21,1.00,-0.06,-4.52,-2.50,0.06
34980,0.22,0.98,-0.09,-4.33,-2.32,0.73
35000,0.22,0.99,-0.09,-6.47,-3.30,0.18
35020,0.21,1.00,-0.08,-10.25,-4.70,0.00
35040,0.21,1.00,-0.07,-11.41,-7.20,1.04
35060,0.22,1.00,-0.06,-11.66,-7.87,2.20
35080,0.23,0.98,-0.05,-10.07,-7.57,2.50
35100,0.23,1.00,-0.04,-9.40,-5.92,2.08
35120,0.22,1.01,-0.03,-7.81,-6.10,1.83
35140,0.23,1.00,-0.00,-4.39,-5.25,2.38
35160,0.24,0.99,-0.02,-2.32,-3.54,2.20
35180,0.25,0.97,-0.03,-1.16,-2.08,1.22
35200,0.24,0.98,-0.01,-0.55,-0.49,-0.85
35220,0.23,0.99,-0.03,-0.98,0.00,-2.01
35240,0.24,0.99,-0.03,-1.46,0.12,-2.32
35260,0.24,0.98,-0.03,-1.77,0.92,-3.17
35280,0.24,0.98,-0.01,-0.67,3.85,-4.39
35300,0.25,0.98,-0.00,1.34,5.74,-6.53
35320,0.22,1.00,-0.02,4.33,8.30,-8.30
35340,0.20,1.01,-0.08,7.02,7.57,-6.35
35360,0.21,1.01,-0.06,5.37,4.33,-4.64
35380,0.22,1.00,-0.05,3.54,3.23,-3.42
35400,0.22,0.99,-0.04,3.54,4.64,-3.72
35420,0.21,1.00,-0.04,5.62,5.74,-4.27
35440,0.21,0.99,-0.07,6.96,5.68,-4.27
35460,0.19,1.00,-0.08,4.39,3.05,-2.69
35480,0.20,1.01,-0.07,0.55,0.67,-0.49
35500,0.22,1.00,-0.07,-1.83,-0.67,0.85
35520,0.20,1.00,-0.06,-2.50,-0.61,1.28
35540,0.21,1.00,-0.08,-4.09,-2.01,2.01
35560,0.19,1.01,-0.06,-6.16,-2.99,2.81
35580,0.21,1.00,-0.08,-8.48,-3.97,5.55
35600,0.22,1.01,-0.05,-8.97,-6.35,7.87
35620,0.23,1.00,-0.04,-7.93,-4.64,8.61
35640,0.23,1.00,-0.07,-6.29,-3.85,7.75
35660,0.23,1.00,-0.09,-5.80,-4.76,7.32
35680,0.23,1.01,-0.10,-4.64,-7.26,6.96
35700,0.24,1.00,-0.10,-2.99,-11.41,7.26
35720,0.23,1.03,-0.06,-1.89,-14.89,7.63
35740,0.23,1.03,-0.06,-1.95,-15.99,9.22
35760,0.25,1.01,-0.04,-1.65,-17.03,11.11
35780,0.25,1.02,-0.02,-5.25,-14.59,12.02
35800,0.26,1.01,-0.05,-6.90,-14.16,13.49
35820,0.26,1.01,-0.05,-8.30,-14.22,14.16
35840,0.26,1.02,-0.02,-9.46,-15.01,15.69
35860,0.28,1.00,0.02,-9.52,-15.26,18.01
35880,0.29,1.00,0.03,-10.01,-13.43,19.65
35900,0.30,0.97,0.01,-11.41,-10.50,20.26
35920,0.32,0.95,-0.00,-12.33,-10.25,19.90
35940,0.32,0.95,-0.00,-14.40,-10.13,18.62
35960,0.33,0.96,0.02,-15.81,-10.44,15.87
35980,0.33,0.98,0.06,-15.38,-10.74,15.81
36000,0.32,1.00,0.08,-13.85,-9.22,16.85
36020,0.34,0.98,0.07,-13.31,-5.62,19.59
36040,0.35,0.97,0.04,-13.06,-5.86,20.81
36060,0.35,0.98,0.05,-13.85,-5.37,21.73
36080,0.37,0.97,0.07,-13.49,-5.74,23.19
36100,0.38,0.96,0.10,-12.21,-3.91,23.32
36120,0.38,0.98,0.13,-9.83,-2.32,23.50
36140,0.39,0.96,0.15,-7.63,-0.43,25.21
36160,0.41,0.94,0.08,-5.49,1.95,27.59
36180,0.43,0.92,0.06,-4.88,1.89,28.50
36200,0.43,0.90,0.04,-5.25,1.59,27.83
36220,0.43,0.93,0.08,-5.92,0.00,27.22
36240,0.42,0.98,0.09,-6.16,0.31,28.56
36260,0.47,0.91,0.08,-6.59,-1.28,31.49
36280,0.48,0.87,0.06,-6.23,-1.71,29.66
36300,0.49,0.88,0.09,-4.76,-2.75,28.75
36320,0.50,0.88,0.15,-1.89,-3.54,28.14
36340,0.53,0.83,0.11,-2.26,-1.22,25.82
36360,0.53,0.83,0.10,-3.17,-0.24,22.95
36380,0.54,0.84,0.07,-3.72,0.49,20.39
36400,0.53,0.85,0.09,-4.33,-1.65,18.37
36420,0.56,0.82,0.12,-4.15,-1.89,16.11
36440,0.58,0.80,0.13,-2.75,-1.59,12.39
36460,0.58,0.78,0.13,0.12,0.18,6.23
36480,0.61,0.73,0.13,2.14,0.85,1.10
36500,0.58,0.74,0.13,4.46,2.14,-5.98
36520,0.58,0.76,0.09,4.58,3.05,-14.53
36540,0.54,0.85,0.04,3.36,3.30,-19.29
36560,0.54,0.86,0.10,5.25,0.73,-20.63
36580,0.51,0.89,0.11,5.00,1.28,-21.30
36600,0.52,0.88,0.09,5.86,2.14,-20.08
36620,0.54,0.85,0.09,6.35,2.26,-20.75
36640,0.53,0.81,0.11,7.39,3.23,-24.11
36660,0.48,0.90,0.12,10.38,3.66,-28.99
36680,0.48,0.92,0.12,13.49,3.30,-28.02
36700,0.50,0.85,0.07,15.26,4.64,-27.77
36720,0.48,0.83,0.05,16.05,6.71,-34.55
36740,0.44,0.91,0.04,17.58,6.65,-38.09
36760,0.39,1.02,0.05,18.37,4.82,-35.46
36780,0.43,0.98,-0.01,16.97,1.95,-25.39
36800,0.43,0.93,-0.03,13.67,3.72,-23.99
36820,0.45,0.84,-0.00,11.23,5.31,-26.37
36840,0.35,0.97,0.05,11.29,6.90,-29.42
36860,0.34,1.05,-0.01,11.54,4.21,-21.48
36880,0.40,0.95,-0.07,9.64,3.66,-16.24
36900,0.42,0.88,-0.10,6.41,5.74,-22.09
36920,0.41,0.83,0.04,2.14,6.41,-29.11
36940,0.26,1.08,0.05,3.17,8.91,-33.14
36960,0.29,1.11,0.02,7.39,2.75,-18.07
36980,0.35,0.98,-0.06,8.54,5.74,-14.28
37000,0.38,0.88,-0.05,7.51,5.49,-16.36
37020,0.40,0.78,-0.04,6.23,7.08,-23.07
37040,0.26,1.00,0.01,8.48,11.78,-33.57
37060,0.23,1.08,-0.02,9.95,9.03,-27.16
37080,0.29,1.02,-0.08,9.83,7.20,-19.65
37100,0.33,0.92,-0.10,8.06,10.19,-19.29
37120,0.40,0.84,-0.08,6.04,13.67,-26.12
37140,0.28,0.96,-0.05,4.15,26.31,-36.87
37160,0.07,1.24,-0.15,10.68,18.19,-20.63
37180,0.22,1.06,-0.14,8.85,5.43,-3.05
37200,0.27,0.98,-0.12,2.38,1.40,-1.65
37220,0.27,0.98,-0.04,-2.87,3.91,-6.47
37240,0.30,0.95,-0.06,-1.53,6.10,-9.95
37260,0.28,0.96,-0.07,1.34,11.90,-15.87
37280,0.11,1.08,-0.06,7.32,5.37,-10.99
37300,0.24,0.99,-0.11,2.56,-2.50,-1.71
37320,0.25,0.98,-0.10,-2.62,-0.98,-2.56
37340,0.24,0.99,-0.07,-3.97,0.61,-5.43
37360,0.24,0.99,-0.06,-0.43,1.53,-7.08
37380,0.23,0.99,-0.07,2.01,3.11,-7.57
37400,0.20,1.00,-0.08,2.56,4.64,-7.75
37420,0.20,1.00,-0.08,0.31,-0.06,-3.54
37440,0.22,1.00,-0.08,-1.40,-0.43,-1.59
37460,0.22,0.99,-0.08,-1.83,0.55,-1.59
37480,0.22,0.99,-0.08,-0.92,1.40,-1.89
37500,0.21,1.00,-0.08,0.00,1.59,-1.71
37520,0.21,1.00,-0.08,0.37,0.85,-0.98
37540,0.22,0.99,-0.08,-0.06,-0.06,0.37
37560,0.22,0.99,-0.08,-0.61,0.43,0.06
37580,0.23,0.99,-0.08,-0.61,0.98,-0.61
37600,0.21,1.00,-0.08,0.00,1.46,-1.16
37620,0.21,1.00,-0.08,0.31,0.67,-0.67
37640,0.22,0.99,-0.09,0.06,0.43,-0.37
37660,0.22,0.99,-0.09,-0.31,0.98,-0.67
37680,0.22,0.99,-0.08,-0.18,1.34,-1.28
37700,0.21,1.00,-0.09,0.06,1.34,-1.40
37720,0.21,1.00,-0.08,0.00,0.00,0.06
37740,0.22,0.99,-0.09,-0.49,-0.37,0.43
37760,0.22,0.99,-0.09,-0.73,0.24,0.06
37780,0.22,0.99,-0.09,-0.92,0.37,-0.49
37800,0.22,0.99,-0.08,-0.79,0.73,-0.43
37820,0.21,1.00,-0.09,-1.10,0.43,0.18
37840,0.22,1.00,-0.09,-2.01,-0.98,0.85
37860,0.22,0.99,-0.08,-2.20,-0.43,0.98
37880,0.22,0.99,-0.09,-2.14,-0.12,0.55
37900,0.23,0.99,-0.08,-1.95,0.12,0.24
37920,0.21,1.00,-0.08,-1.65,-0.24,0.98
37940,0.21,1.00,-0.09,-1.83,-1.16,2.01
37960,0.22,0.99,-0.08,-2.56,-1.53,2.38
37980,0.23,0.99,-0.08,-3.66,-1.40,2.32
38000,0.23,0.99,-0.08,-3.78,-1.10,2.32
38020,0.22,1.00,-0.07,-3.11,-0.98,2.50
38040,0.23,1.00,-0.07,-2.44,-1.16,3.72
38060,0.23,1.00,-0.08,-2.20,-1.22,4.58
38080,0.23,1.00,-0.08,-2.26,-1.65,5.13
38100,0.23,1.00,-0.09,-3.17,-1.65,6.04
38120,0.22,1.02,-0.09,-3.72,-2.38,7.51
38140,0.24,1.01,-0.08,-3.78,-2.56,8.73
38160,0.25,1.00,-0.08,-3.54,-2.87,8.79
38180,0.25,1.00,-0.09,-3.97,-3.11,8.85
38200,0.26,1.00,-0.09,-4.82,-3.54,9.16
38220,0.25,1.01,-0.11,-6.04,-3.05,9.52
38240,0.26,1.00,-0.08,-9.16,-3.78,9.64
38260,0.26,1.00,-0.07,-10.86,-3.85,10.44
38280,0.26,1.01,-0.07,-12.15,-3.23,11.66
38300,0.27,1.02,-0.05,-13.12,-3.78,14.34
38320,0.28,1.01,-0.05,-13.61,-3.91,16.60
38340,0.28,1.02,-0.05,-13.98,-3.91,18.43
38360,0.29,1.00,-0.03,-14.04,-3.91,22.46
38380,0.32,0.96,-0.03,-14.28,-3.91,23.44
38400,0.33,0.97,-0.04,-14.95,-2.99,22.64
38420,0.34,0.95,-0.01,-14.95,-3.48,23.44
38440,0.34,0.97,-0.01,-15.01,-2.69,23.50
38460,0.34,0.99,0.03,-14.59,-2.81,24.60
38480,0.35,0.94,0.02,-12.82,-1.46,26.55
38500,0.37,0.97,0.03,-12.15,-1.53,27.53
38520,0.37,0.97,0.02,-10.56,-1.22,28.63
38540,0.39,0.94,0.02,-10.93,-0.67,30.40
38560,0.42,0.89,-0.01,-13.31,-0.12,29.11
38580,0.42,0.89,-0.03,-15.38,0.24,26.55
38600,0.43,0.91,-0.01,-17.88,-1.34,24.72
38620,0.45,0.91,0.05,-19.71,-2.44,23.80
38640,0.44,0.94,0.07,-19.84,-2.14,23.44
38660,0.45,0.92,0.09,-18.25,-2.75,24.60
38680,0.47,0.91,0.08,-17.21,-1.59,25.70
38700,0.48,0.87,0.08,-16.17,-0.79,25.63
38720,0.49,0.88,0.09,-14.89,-0.24,23.86
38740,0.50,0.89,0.11,-12.70,-0.37,22.95
38760,0.51,0.88,0.10,-11.66,0.12,22.34
38780,0.52,0.86,0.10,-10.19,0.37,21.42
38800,0.54,0.83,0.12,-8.48,-0.43,19.17
38820,0.55,0.83,0.15,-5.68,-0.24,16.05
38840,0.55,0.83,0.16,-2.38,-0.06,12.94
38860,0.54,0.86,0.17,3.11,0.92,9.64
38880,0.54,0.87,0.11,3.91,2.26,8.91
38900,0.57,0.83,0.08,4.46,1.77,8.73
38920,0.55,0.82,0.04,1.65,2.14,4.76
38940,0.55,0.84,0.04,-1.04,1.77,3.42
38960,0.56,0.84,0.07,-2.14,0.67,2.81
38980,0.56,0.83,0.09,-2.62,0.73,1.59
39000,0.59,0.77,0.13,-1.04,1.40,-1.04
39020,0.60,0.73,0.13,0.43,2.87,-6.90
39040,0.60,0.73,0.13,2.99,4.33,-19.71
39060,0.54,0.82,0.16,11.60,4.09,-27.53
39080,0.52,0.88,0.15,19.78,0.55,-29.36
39100,0.51,0.89,0.09,24.66,0.85,-28.14
39120,0.54,0.81,0.07,25.70,0.55,-29.60
39140,0.48,0.84,0.01,24.23,5.07,-34.12
39160,0.47,0.95,-0.03,22.64,3.17,-34.97
39180,0.46,0.97,0.02,20.02,-2.56,-26.67
39200,0.47,0.88,0.02,18.25,2.75,-23.44
39220,0.52,0.80,0.06,17.58,4.58,-25.02
39240,0.42,0.90,0.02,19.65,10.19,-31.68
39260,0.42,0.96,-0.02,20.26,7.32,-29.54
39280,0.40,0.94,-0.03,19.23,6.59,-26.37
39300,0.44,0.82,-0.06,15.93,8.73,-28.02
39320,0.46,0.75,-0.07,12.88,11.60,-35.34
39340,0.35,0.87,-0.05,9.77,13.79,-42.85
39360,0.25,1.15,-0.05,10.68,5.98,-36.62
39380,0.33,1.08,-0.04,10.86,7.08,-29.05
39400,0.40,0.87,-0.03,13.31,7.75,-28.20
39420,0.38,0.76,-0.08,11.17,18.49,-39.43
39440,0.26,0.99,-0.12,6.96,14.28,-40.41
39460,0.22,1.21,-0.17,2.14,11.35,-35.34
39480,0.25,1.15,-0.07,3.60,3.66,-25.27
39500,0.33,0.93,-0.09,4.82,7.93,-20.57
39520,0.37,0.86,-0.13,2.20,12.45,-27.65
39540,0.28,0.95,-0.23,-4.88,19.71,-35.95
39560,0.08,1.27,-0.05,-15.81,6.59,-28.63
39580,0.18,1.14,0.01,-9.89,0.43,-8.48
39600,0.24,1.03,-0.01,-3.48,-2.50,-1.46
39620,0.28,0.94,-0.08,2.56,2.20,-0.49
39640,0.29,0.93,-0.09,1.89,4.64,-5.00
39660,0.31,0.90,-0.11,0.06,8.42,-9.83
39680,0.12,1.12,-0.03,0.43,10.80,-16.78
39700,0.16,1.08,-0.05,6.16,0.06,-4.33
39720,0.24,0.99,-0.11,5.13,-1.89,1.46
39740,0.25,0.98,-0.09,0.00,-0.49,-1.10
39760,0.25,0.97,-0.08,-1.46,0.67,-3.30
39780,0.25,0.97,-0.09,-1.46,2.08,-5.98
39800,0.22,1.00,-0.08,-1.59,2.56,-7.20
39820,0.20,1.02,-0.07,-1.34,0.55,-4.15
39840,0.23,0.99,-0.09,-2.20,-0.49,-1.40
39860,0.24,0.98,-0.08,-3.42,0.43,-2.44
39880,0.24,0.98,-0.08,-3.17,1.53,-3.30
39900,0.21,1.00,-0.07,-2.32,2.69,-4.03
39920,0.20,1.01,-0.06,-0.37,1.16,-2.69
39940,0.22,0.99,-0.08,0.24,0.06,0.24
39960,0.23,0.98,-0.09,-0.18,0.24,0.12
39980,0.23,0.99,-0.08,-0.98,0.73,-0.85
40000,0.22,1.00,-0.07,-0.79,1.16,-1.59
40020,0.21,1.00,-0.07,-0.43,0.00,-0.85
40040,0.22,1.00,-0.08,0.12,-0.85,0.43
40060,0.23,0.99,-0.08,-0.24,0.18,-0.18
40080,0.23,0.99,-0.08,-0.73,0.67,-1.22
40100,0.22,0.99,-0.08,-0.67,1.16,-1.40
40120,0.21,1.00,-0.08,-0.37,0.49,-0.73
40140,0.23,0.99,-0.08,-0.43,-0.18,0.31
40160,0.23,0.99,-0.08,-0.67,-0.12,0.18
40180,0.23,0.99,-0.08,-1.10,0.85,-0.98
40200,0.22,0.99,-0.08,-0.98,0.92,-0.79
40220,0.21,1.00,-0.08,-0.85,0.31,0.06
40240,0.23,0.99,-0.08,-0.98,-0.18,0.85
40260,0.23,0.99,-0.08,-1.22,-0.12,0.55
40280,0.23,0.99,-0.08,-1.46,0.61,-0.49
40300,0.22,0.99,-0.08,-1.34,1.04,-0.61
40320,0.22,1.00,-0.08,-1.22,0.12,0.18
40340,0.23,0.99,-0.08,-1.22,-0.24,0.79
40360,0.23,0.99,-0.08,-1.28,0.00,0.79
40380,0.23,0.99,-0.08,-0.98,0.85,-0.12
40400,0.23,0.99,-0.08,-0.43,1.16,-0.18
40420,0.22,1.00,-0.08,-0.12,0.92,0.24
40440,0.23,0.99,-0.08,0.00,0.43,0.67
40460,0.23,0.99,-0.08,-0.18,0.67,0.24
40480,0.23,0.99,-0.08,-0.31,0.85,0.00
40500,0.22,1.00,-0.08,-0.61,0.49,0.61
40520,0.23,0.99,-0.08,-0.43,0.18,1.04
40540,0.23,0.99,-0.08,-0.61,0.18,1.10
40560,0.23,0.99,-0.08,-0.61,0.49,0.67
40580,0.23,1.00,-0.08,-0.67,0.73,0.67
40600,0.23,1.00,-0.08,-0.55,0.49,1.28
40620,0.23,1.00,-0.09,-0.12,-0.18,2.08
40640,0.23,1.00,-0.07,0.00,-0.18,2.32
40660,0.23,1.00,-0.08,0.37,0.06,2.87
40680,0.23,1.00,-0.08,-15.50,-0.31,4.70
40700,0.23,1.00,-0.09,-0.31,-0.67,5.80
40720,0.24,1.00,-0.09,-0.31,-1.22,7.08
40740,0.24,1.01,-0.08,-0.18,-1.40,8.67
40760,0.25,1.00,-0.09,0.43,-2.01,10.99
40780,0.23,1.06,-0.09,1.28,-2.01,12.57
40800,0.25,1.07,-0.06,3.17,-3.11,17.27
40820,0.26,1.03,-0.10,5.31,-2.62,23.13
40840,0.27,1.01,-0.14,2.81,-3.11,25.94
40860,0.28,1.00,-0.15,-1.77,-3.78,26.67
40880,0.30,0.99,-0.13,-7.51,-6.41,27.59
40900,0.32,0.97,-0.11,-10.74,-6.71,27.71
40920,0.33,0.96,-0.10,-12.82,-6.71,26.86
40940,0.34,0.95,-0.07,-14.95,-6.65,25.33
40960,0.34,0.96,-0.07,-15.75,-6.04,24.48
40980,0.35,0.96,-0.05,-15.75,-6.77,24.90
41000,0.36,1.00,-0.03,-15.44,-6.47,26.43
41020,0.37,0.95,-0.02,-13.98,-5.98,27.47
41040,0.38,0.95,-0.02,-14.04,-5.86,28.32
41060,0.39,0.93,-0.03,-14.10,-4.52,29.24
41080,0.40,0.94,-0.04,-14.71,-3.91,29.72
41100,0.41,0.94,-0.04,-16.05,-4.94,30.94
41120,0.43,0.90,-0.04,-17.88,-4.33,32.04
41140,0.45,0.90,-0.02,-19.71,-3.05,30.94
41160,0.47,0.88,-0.00,-19.96,-2.93,30.76
41180,0.48,0.87,0.03,-19.96,-2.62,29.97
41200,0.49,0.87,0.07,-16.85,-2.38,28.02
41220,0.51,0.86,0.06,-14.83,-3.97,26.79
41240,0.52,0.84,0.05,-14.04,-2.38,25.57
41260,0.53,0.84,0.01,-14.10,-1.59,20.87
41280,0.54,0.84,0.01,-14.34,-1.65,18.55
41300,0.53,0.88,0.04,-14.95,-2.14,16.72
41320,0.55,0.84,0.07,-13.98,-3.05,15.93
41340,0.55,0.83,0.10,-12.21,-2.44,13.43
41360,0.56,0.83,0.11,-9.89,-1.65,10.93
41380,0.58,0.79,0.12,-6.53,-0.67,6.35
41400,0.58,0.78,0.11,-3.97,1.40,2.32
41420,0.60,0.73,0.10,-0.73,1.95,-1.71
41440,0.60,0.72,0.08,3.05,3.30,-12.57
41460,0.56,0.81,0.10,6.10,2.87,-19.41
41480,0.56,0.83,0.14,10.07,1.77,-22.83
41500,0.53,0.86,0.14,16.66,2.38,-25.88
41520,0.50,0.86,0.02,18.43,5.07,-26.55
41540,0.53,0.84,-0.05,14.95,4.15,-26.43
41560,0.50,0.87,-0.10,10.01,5.62,-28.20
41580,0.50,0.87,0.05,6.35,2.93,-30.70
41600,0.51,0.84,0.13,7.45,1.16,-33.26
41620,0.44,0.91,0.09,11.11,4.21,-36.38
41640,0.45,0.94,-0.01,13.55,5.19,-29.79
41660,0.49,0.85,-0.07,10.19,7.45,-29.36
41680,0.45,0.83,-0.07,7.51,9.03,-33.87
41700,0.37,0.92,0.07,5.07,8.24,-38.33
41720,0.35,1.03,0.07,8.36,5.31,-35.95
41740,0.35,1.02,0.03,12.76,4.88,-30.94
41760,0.36,0.98,-0.04,14.34,7.26,-26.49
41780,0.39,0.91,-0.05,12.39,7.39,-25.27
41800,0.38,0.84,-0.06,10.56,9.95,-28.14
41820,0.36,0.97,-0.11,4.33,9.77,-32.84
41840,0.30,1.09,-0.08,1.22,3.42,-30.40
41860,0.31,1.05,-0.01,1.95,2.26,-25.63
41880,0.32,1.01,-0.00,5.80,7.32,-23.25
41900,0.32,0.91,-0.02,7.45,10.31,-25.88
41920,0.28,0.95,-0.06,7.75,10.80,-27.95
41940,0.28,1.01,-0.09,6.23,6.23,-24.35
41960,0.28,1.05,-0.07,5.19,6.47,-23.80
41980,0.30,1.00,-0.03,7.20,7.69,-22.95
42000,0.35,0.85,-0.02,9.70,13.79,-26.73
42020,0.11,1.20,-0.18,11.35,21.85,-28.56
42040,0.20,1.08,-0.18,6.90,4.27,-13.49
42060,0.23,1.07,-0.10,0.73,-1.46,-7.45
42080,0.24,1.01,-0.05,-2.32,-1.53,-2.20
42100,0.26,0.98,-0.05,-0.24,0.61,-2.75
42120,0.29,0.92,-0.09,1.34,4.94,-5.68
42140,0.27,0.94,-0.13,0.55,12.76,-17.21
42160,0.12,1.09,-0.05,2.75,11.96,-19.59
42180,0.16,1.07,-0.05,5.07,-0.98,-7.69
42200,0.22,1.00,-0.09,1.40,-0.24,-2.38
42220,0.23,0.99,-0.10,-0.12,1.22,-3.11
42240,0.23,0.99,-0.09,-0.55,2.26,-4.46
42260,0.23,0.98,-0.10,1.40,3.72,-6.53
42280,0.24,0.97,-0.11,1.65,3.91,-7.87
42300,0.25,0.97,-0.13,1.16,6.04,-10.19
42320,0.21,0.99,-0.11,1.28,8.79,-14.22
42340,0.12,1.05,-0.04,2.50,2.81,-9.16
42360,0.20,1.00,-0.10,1.34,0.24,-1.28
42380,0.20,1.00,-0.10,0.43,0.55,-0.49
42400,0.20,0.99,-0.10,0.55,1.10,-0.85
42420,0.20,0.99,-0.10,0.43,1.83,-1.16
42440,0.21,0.99,-0.10,0.61,2.50,-1.89
42460,0.21,0.99,-0.11,0.24,3.23,-2.93
42480,0.21,0.99,-0.11,0.18,3.72,-4.09
42500,0.19,1.00,-0.10,0.43,4.15,-4.76
42520,0.18,1.00,-0.10,1.04,0.43,-0.73
42540,0.20,0.99,-0.11,0.24,-0.18,0.43
42560,0.20,0.99,-0.11,0.18,0.24,-0.06
42580,0.20,1.00,-0.11,0.00,1.10,-0.92
42600,0.20,0.99,-0.11,-0.18,1.65,-1.34
42620,0.19,0.99,-0.11,-0.18,2.08,-1.59
42640,0.19,0.99,-0.11,-0.12,1.77,-1.83
42660,0.19,1.00,-0.11,-0.49,2.01,-2.26
42680,0.19,1.00,-0.10,-0.49,1.59,-2.20
42700,0.18,1.00,-0.10,0.00,1.16,-1.22
42720,0.18,1.00,-0.10,0.31,0.43,-0.18
42740,0.20,0.99,-0.11,-0.12,-0.24,0.31
42760,0.19,0.99,-0.11,-0.55,0.55,-0.31
42780,0.19,0.99,-0.11,-0.73,0.98,-0.67
42800,0.19,1.00,-0.11,-0.79,0.98,-0.61
42820,0.19,1.00,-0.11,-0.79,0.92,-0.37
42840,0.19,1.00,-0.11,-0.55,0.18,0.18
42860,0.19,1.00,-0.11,-0.61,0.00,0.18
42880,0.19,1.00,-0.11,-0.37,-0.06,0.49
42900,0.19,0.99,-0.11,-0.43,0.31,0.37
42920,0.19,1.00,-0.11,-0.06,0.37,0.67
42940,0.19,1.00,-0.11,-0.24,0.18,0.98
42960,0.20,0.99,-0.11,0.12,-0.31,1.59
42980,0.19,1.00,-0.11,0.00,0.00,1.53
43000,0.20,1.00,-0.11,0.18,-0.18,1.77
43020,0.20,1.00,-0.11,1.04,-0.85,2.32
43040,0.19,1.00,-0.11,1.34,-0.31,2.44
43060,0.19,1.00,-0.11,1.16,-1.40,3.66
43080,0.20,0.99,-0.12,-0.98,-1.71,4.64
43100,0.20,1.00,-0.12,-3.17,-2.38,5.37
43120,0.20,1.00,-0.11,-4.03,-2.01,5.98
43140,0.20,1.00,-0.10,-4.15,-2.62,8.36
43160,0.19,1.02,-0.10,-4.64,-3.91,11.90
43180,0.20,1.03,-0.10,-4.70,-4.15,15.08
43200,0.20,1.06,-0.12,-4.52,-5.49,19.84
43220,0.22,1.06,-0.14,-3.54,-6.23,22.46
43240,0.25,1.04,-0.13,-3.91,-7.14,23.68
43260,0.25,1.04,-0.12,-4.82,-5.37,24.35
43280,0.27,1.04,-0.14,-7.69,-4.21,26.06
43300,0.28,1.00,-0.17,-9.95,-4.76,27.47
43320,0.26,1.03,-0.13,-13.73,-5.74,27.71
43340,0.29,1.00,-0.10,-17.09,-7.45,29.91
43360,0.30,1.01,-0.08,-18.19,-7.51,30.58
43380,0.29,1.04,-0.06,-18.98,-8.91,32.29
43400,0.35,0.96,-0.05,-18.01,-10.68,37.60
43420,0.36,0.93,-0.05,-18.01,-8.30,37.29
43440,0.38,0.92,-0.04,-17.64,-8.00,36.44
43460,0.41,0.88,-0.01,-17.15,-6.53,33.81
43480,0.42,0.87,0.00,-15.69,-5.13,31.01
43500,0.42,0.89,0.02,-13.12,-4.52,27.77
43520,0.42,0.91,0.02,-9.40,-3.85,26.18
43540,0.45,0.89,0.04,-6.47,-3.91,26.12
43560,0.46,0.87,0.03,-5.13,-2.20,24.60
43580,0.47,0.86,0.00,-3.36,-0.73,21.12
43600,0.47,0.87,-0.01,-3.60,-1.22,19.53
43620,0.47,0.88,-0.06,-4.39,-0.43,18.01
43640,0.47,0.90,-0.04,-6.04,-1.95,16.72
43660,0.50,0.86,-0.03,-9.28,-1.46,15.08
43680,0.49,0.88,0.00,-10.44,-1.28,12.82
43700,0.50,0.88,0.03,-10.31,-2.14,12.02
43720,0.52,0.84,0.04,-8.48,-1.83,9.52
43740,0.53,0.81,0.06,-6.16,-0.98,5.74
43760,0.52,0.83,0.09,-3.48,0.24,2.08
43780,0.51,0.86,0.05,0.43,1.95,-2.01
43800,0.52,0.86,0.01,2.08,1.22,-3.72
43820,0.51,0.86,-0.00,2.26,1.59,-5.55
43840,0.50,0.88,0.02,2.87,0.79,-8.24
43860,0.50,0.88,0.04,2.99,1.28,-9.64
43880,0.50,0.88,0.02,3.48,2.08,-10.93
43900,0.50,0.86,0.01,4.03,1.83,-12.21
43920,0.49,0.87,-0.00,3.91,2.50,-14.28
43940,0.51,0.84,0.01,4.21,1.16,-16.60
43960,0.50,0.80,0.04,5.37,2.14,-23.13
43980,0.44,0.92,-0.03,7.26,3.42,-26.37
44000,0.44,0.95,-0.01,7.39,0.00,-24.23
44020,0.45,0.92,-0.03,6.29,1.04,-21.73
44040,0.47,0.84,-0.06,3.42,5.19,-25.09
44060,0.45,0.85,0.06,3.42,3.54,-30.15
44080,0.35,1.05,0.04,6.23,5.19,-28.63
44100,0.38,1.03,0.03,10.99,1.22,-21.00
44120,0.41,0.96,-0.02,11.47,4.82,-18.43
44140,0.42,0.88,-0.06,10.56,9.52,-19.84
44160,0.39,0.83,-0.05,6.96,10.93,-26.43
44180,0.33,1.01,-0.07,5.68,9.64,-28.69
44200,0.34,1.02,0.00,8.06,4.03,-24.48
44220,0.34,0.98,0.00,13.06,6.96,-21.36
44240,0.38,0.91,-0.03,14.28,9.52,-22.03
44260,0.38,0.77,-0.08,13.31,15.01,-27.59
44280,0.30,0.95,-0.16,7.81,15.81,-35.89
44300,0.25,1.13,-0.15,4.39,9.89,-32.90
44320,0.28,1.09,-0.05,4.88,5.49,-26.49
44340,0.30,0.94,-0.06,7.57,11.54,-24.11
44360,0.32,0.91,-0.11,7.39,20.26,-30.09
44380,0.13,1.15,-0.26,3.85,22.58,-30.70
44400,0.18,1.14,-0.14,-4.82,0.85,-12.15
44420,0.23,1.06,-0.06,-3.97,-1.04,-3.17
44440,0.26,0.99,-0.06,-0.43,0.73,-0.12
44460,0.30,0.93,-0.08,1.83,5.92,-4.64
44480,0.33,0.85,-0.14,0.18,10.07,-12.27
44500,0.22,0.99,-0.12,-1.95,13.61,-21.00
44520,0.15,1.09,-0.08,-1.65,5.49,-16.91
44540,0.20,1.02,-0.10,-1.34,1.59,-4.76
44560,0.24,1.00,-0.09,-0.92,0.92,-4.21
44580,0.25,0.98,-0.10,-0.31,2.32,-3.78
44600,0.24,0.98,-0.10,0.06,3.48,-7.08
44620,0.25,0.97,-0.12,0.06,4.88,-8.24
44640,0.27,0.96,-0.10,-0.92,6.23,-11.29
44660,0.16,1.02,-0.09,1.16,10.31,-15.75
44680,0.12,1.07,-0.05,3.23,3.11,-9.16
44700,0.21,1.00,-0.11,1.53,-0.43,-1.04
44720,0.22,0.99,-0.10,-0.31,0.43,-0.55
44740,0.21,0.99,-0.11,-0.24,1.04,-0.98
44760,0.21,0.99,-0.11,0.06,1.46,-1.59
44780,0.22,0.99,-0.11,-0.12,2.32,-2.32
44800,0.21,0.99,-0.11,-0.18,3.30,-3.42
44820,0.20,0.99,-0.11,-0.18,3.23,-4.15
44840,0.18,1.01,-0.09,-0.49,0.37,-1.71
44860,0.20,1.00,-0.10,-0.67,-0.43,0.31
44880,0.21,0.99,-0.11,-0.67,-0.61,0.43
44900,0.21,0.99,-0.11,-0.85,0.06,-0.55
44920,0.21,0.99,-0.11,-0.98,1.16,-1.10
44940,0.21,0.99,-0.11,-1.04,1.59,-1.71
44960,0.20,0.99,-0.11,-0.73,1.77,-1.77
44980,0.20,1.00,-0.10,-0.67,1.46,-1.53
45000,0.21,0.99,-0.11,-0.55,1.34,-1.53
45020,0.21,0.99,-0.11,-0.73,1.53,-1.59
45040,0.20,1.00,-0.11,-0.85,1.89,-1.89
45060,0.19,1.00,-0.10,-0.49,1.40,-1.34
45080,0.20,1.00,-0.11,0.00,0.18,0.31
45100,0.21,0.99,-0.11,-0.31,0.31,0.37
45120,0.21,0.99,-0.11,-0.43,0.55,-0.06
45140,0.21,0.99,-0.11,-0.43,1.10,-0.43
45160,0.20,1.00,-0.11,-0.79,1.10,-0.55
45180,0.20,0.99,-0.11,-0.61,0.37,0.06
45200,0.20,0.99,-0.11,-0.85,0.18,0.18
45220,0.21,0.99,-0.11,-0.85,0.31,0.31
45240,0.21,0.99,-0.11,-0.67,0.61,0.12
45260,0.20,0.99,-0.11,-0.79,0.98,-0.12
45280,0.20,1.00,-0.11,-0.49,0.49,0.49
45300,0.20,1.00,-0.11,-0.67,-0.43,1.28
45320,0.21,0.99,-0.11,-0.79,-0.18,1.46
45340,0.21,0.99,-0.11,-0.98,-0.31,1.28
45360,0.21,1.00,-0.10,-0.92,-0.06,1.16
45380,0.21,1.00,-0.11,-0.31,0.06,1.53
45400,0.20,1.00,-0.11,-0.24,-0.12,2.01
45420,0.20,1.00,-0.11,-0.61,-1.10,2.69
45440,0.21,0.99,-0.11,-0.79,-1.59,3.60
45460,0.21,0.99,-0.11,-1.34,-1.40,4.27
45480,0.21,1.00,-0.11,-1.95,-1.83,5.74
45500,0.21,1.01,-0.10,-1.71,-2.62,7.87
45520,0.23,0.99,-0.11,-1.59,-2.87,10.07
45540,0.21,1.02,-0.10,-3.05,-3.54,12.33
45560,0.22,1.03,-0.11,-2.20,-4.03,15.69
45580,0.23,1.03,-0.15,-2.01,-4.70,18.37
45600,0.24,1.07,-0.13,-4.70,-7.32,22.03
45620,0.25,1.02,-0.13,-5.68,-6.23,24.48
45640,0.27,1.00,-0.12,-7.02,-4.52,25.57
45660,0.27,1.01,-0.16,-10.80,-5.19,27.47
45680,0.29,0.99,-0.16,-14.77,-5.25,27.53
45700,0.29,1.00,-0.13,-18.19,-7.69,27.89
45720,0.31,0.98,-0.09,-20.81,-9.77,28.81
45740,0.33,0.98,-0.04,-21.36,-8.67,28.14
45760,0.33,0.98,-0.05,-20.81,-7.26,28.08
45780,0.33,1.00,-0.04,-20.08,-7.20,28.99
45800,0.36,0.96,-0.03,-18.98,-6.41,31.56
45820,0.38,0.94,-0.02,-18.62,-5.31,32.23
45840,0.39,0.92,-0.02,-18.55,-4.33,31.49
45860,0.41,0.93,0.00,-17.70,-4.03,30.46
45880,0.43,0.91,0.04,-15.87,-4.21,30.15
45900,0.44,0.92,0.04,-13.24,-2.69,29.54
45920,0.45,0.90,0.04,-9.70,-1.65,27.89
45940,0.46,0.88,0.00,-8.42,-0.73,26.49
45960,0.47,0.89,-0.00,-8.42,-0.92,24.96
45980,0.49,0.89,-0.00,-8.79,-1.34,23.01
46000,0.49,0.87,0.00,-9.09,-2.69,21.18
46020,0.50,0.86,0.01,-9.52,-3.23,20.39
46040,0.51,0.85,0.05,-9.09,-3.66,16.78
46060,0.52,0.84,0.04,-8.06,-2.62,13.37
46080,0.55,0.79,0.06,-6.23,-2.20,9.77
46100,0.55,0.78,0.10,-1.34,-0.49,1.22
46120,0.55,0.74,0.12,2.50,2.50,-5.74
46140,0.55,0.73,0.07,5.55,3.97,-13.67
46160,0.53,0.80,0.01,8.12,5.07,-23.99
46180,0.51,0.87,0.04,13.12,2.81,-28.14
46200,0.51,0.78,0.09,16.60,3.17,-32.71
46220,0.46,0.82,0.09,20.57,5.86,-39.00
46240,0.44,0.87,-0.05,19.84,4.58,-37.29
46260,0.48,0.92,-0.17,12.02,7.08,-37.48
46280,0.41,1.03,-0.11,10.25,5.13,-39.37
46300,0.41,0.83,0.00,7.14,6.84,-37.35
46320,0.28,1.11,0.11,8.42,2.56,-39.43
46340,0.34,1.05,0.01,10.01,1.71,-27.47
46360,0.44,0.85,-0.15,5.07,6.84,-24.78
46380,0.35,0.97,-0.19,0.67,10.50,-30.88
46400,0.41,0.82,-0.01,-0.85,2.14,-32.90
46420,0.21,1.13,0.11,4.09,3.85,-39.06
46440,0.25,1.14,0.07,10.86,0.43,-24.66
46460,0.34,0.95,-0.10,12.63,5.98,-15.14
46480,0.35,0.91,-0.18,7.39,8.54,-22.83
46500,0.34,0.91,-0.09,2.93,6.59,-27.28
46520,0.32,0.95,-0.03,2.08,7.81,-32.96
46540,0.20,1.06,0.03,6.04,8.42,-29.17
46560,0.25,1.04,-0.07,12.57,11.41,-19.17
46580,0.30,0.94,-0.18,13.31,15.20,-18.31
46600,0.30,0.97,-0.19,9.70,17.52,-24.05
46620,0.23,0.99,-0.15,3.72,21.91,-28.08
46640,0.10,1.13,-0.09,5.49,20.08,-27.34
46660,0.12,1.09,-0.08,10.62,10.19,-14.65
46680,0.24,0.98,-0.14,7.08,6.53,-7.51
46700,0.20,1.00,-0.13,2.93,9.28,-8.48
46720,0.20,1.01,-0.09,1.59,6.47,-8.91
46740,0.13,1.03,-0.07,3.11,5.62,-7.02
46760,0.18,1.00,-0.11,2.69,-0.37,0.61
46780,0.23,0.97,-0.14,0.79,-1.71,1.95
46800,0.22,0.98,-0.12,-0.98,0.55,-0.67
46820,0.21,0.99,-0.11,-0.92,1.59,-2.14
46840,0.21,1.00,-0.11,-0.49,1.77,-2.62
46860,0.19,1.00,-0.09,0.61,1.40,-2.20
46880,0.18,1.00,-0.10,0.61,-1.22,0.85
46900,0.22,0.99,-0.12,-0.61,-2.69,2.14
46920,0.23,0.98,-0.12,-1.46,-1.16,0.73
46940,0.22,0.99,-0.12,-1.77,-0.18,-0.55
46960,0.22,0.99,-0.11,-1.89,0.73,-1.65
46980,0.21,0.99,-0.11,-1.65,1.53,-2.50
47000,0.21,0.99,-0.12,-1.34,1.28,-2.75
47020,0.21,0.99,-0.11,-1.40,1.22,-2.69
47040,0.20,1.00,-0.10,-1.34,1.28,-2.56
47060,0.20,1.00,-0.10,-0.67,1.10,-1.28
47080,0.20,0.99,-0.11,-0.49,0.73,-0.67
47100,0.21,0.99,-0.12,-0.98,0.79,-0.67
47120,0.21,0.99,-0.11,-1.10,1.22,-1.10
47140,0.21,0.99,-0.11,-0.85,1.10,-1.34
47160,0.21,0.99,-0.11,-0.61,1.16,-1.53
47180,0.20,0.99,-0.11,-0.67,1.83,-1.83
47200,0.20,1.00,-0.11,-0.49,1.53,-1.65
47220,0.20,1.00,-0.11,-0.85,1.16,-1.16
47240,0.21,0.99,-0.11,-0.49,1.40,-0.98
47260,0.20,0.99,-0.11,-0.31,1.77,-1.28
47280,0.20,0.99,-0.11,-0.43,1.77,-1.22
47300,0.19,1.00,-0.11,-0.06,1.53,-0.73
47320,0.20,0.99,-0.11,-0.24,0.49,0.31
47340,0.20,0.99,-0.12,-0.12,0.12,0.67
47360,0.21,0.99,-0.12,-0.55,0.37,0.61
47380,0.20,0.99,-0.12,-1.04,0.79,0.24
47400,0.20,0.99,-0.11,-0.92,0.85,0.18
47420,0.20,0.99,-0.12,-1.16,0.85,0.43
47440,0.20,0.99,-0.12,-0.85,0.06,1.22
47460,0.20,1.00,-0.11,-1.65,-0.43,1.89
47480,0.20,1.00,-0.11,-1.46,-0.61,2.14
47500,0.20,1.00,-0.11,-1.28,-1.10,2.56
47520,0.20,1.00,-0.11,-1.28,-1.40,3.36
47540,0.19,1.01,-0.11,-1.40,-2.50,4.82
47560,0.21,1.00,-0.09,-0.61,-4.15,8.61
47580,0.21,1.00,-0.12,0.06,-3.42,10.07
47600,0.21,1.01,-0.12,-0.67,-3.78,11.29
47620,0.22,1.03,-0.10,-1.46,-5.43,16.05
47640,0.23,1.02,-0.13,0.18,-4.82,18.43
47660,0.25,1.00,-0.12,0.49,-6.35,20.14
47680,0.28,1.01,-0.14,0.61,-5.49,20.45
47700,0.26,1.03,-0.14,-0.06,-5.13,21.24
47720,0.26,1.03,-0.13,-0.12,-5.98,23.93
47740,0.27,1.01,-0.12,-4.09,-4.27,25.57
47760,0.29,1.00,-0.15,-6.04,-5.25,27.34
47780,0.31,0.99,-0.14,-8.79,-5.74,27.89
47800,0.32,0.96,-0.13,-11.17,-6.35,26.92
47820,0.33,0.96,-0.12,-14.28,-6.77,25.70
47840,0.33,0.97,-0.10,-15.63,-6.96,25.33
47860,0.34,0.96,-0.09,-16.42,-7.26,25.88
47880,0.36,0.94,-0.08,-17.46,-7.20,25.63
47900,0.37,0.94,-0.06,-18.31,-7.26,25.63
47920,0.38,0.95,-0.07,-18.74,-6.29,25.45
47940,0.40,0.92,-0.04,-19.41,-6.59,25.82
47960,0.41,0.91,-0.04,-19.47,-4.82,24.78
47980,0.42,0.89,-0.04,-19.78,-4.27,23.74
48000,0.43,0.90,-0.01,-19.17,-4.39,21.36
48020,0.43,0.91,-0.01,-18.68,-4.09,20.26
48040,0.45,0.89,0.01,-17.09,-4.76,20.08
48060,0.46,0.86,0.03,-14.04,-3.60,16.60
48080,0.46,0.88,0.05,-11.35,-3.42,14.47
48100,0.47,0.89,0.08,-8.24,-3.23,12.94
48120,0.48,0.89,0.08,-3.54,-1.71,10.86
48140,0.49,0.87,0.04,-0.67,-0.98,9.64
48160,0.50,0.85,0.02,0.37,0.43,7.45
48180,0.52,0.80,0.00,1.65,1.77,1.59
48200,0.54,0.69,0.05,3.30,2.81,-7.08
48220,0.51,0.79,0.03,5.92,4.15,-18.07
48240,0.47,0.89,0.05,8.85,2.87,-24.78
48260,0.47,0.87,-0.00,11.54,3.42,-25.51
48280,0.47,0.85,-0.02,11.23,5.37,-29.42
48300,0.47,0.79,-0.02,11.05,6.16,-34.91
48320,0.34,1.07,0.01,10.80,4.70,-39.73
48340,0.34,1.10,-0.02,12.21,1.59,-29.24
48360,0.38,1.00,-0.06,10.38,3.05,-20.81
48380,0.43,0.88,-0.09,5.80,6.59,-21.06
48400,0.47,0.68,-0.07,2.69,7.02,-27.04
48420,0.30,1.00,0.00,0.49,8.48,-36.68
48440,0.31,1.09,0.01,6.29,0.55,-24.96
48460,0.35,0.96,-0.03,8.73,3.17,-19.47
48480,0.39,0.87,-0.07,9.46,5.80,-21.73
48500,0.43,0.74,-0.09,6.29,10.62,-34.36
48520,0.26,1.00,-0.07,3.85,12.70,-45.53
48540,0.17,1.20,-0.00,5.68,5.74,-39.37
48560,0.24,1.11,-0.06,9.22,5.25,-18.74
48580,0.34,0.94,-0.16,7.45,7.63,-18.68
48600,0.30,0.98,-0.14,2.75,11.66,-24.78
48620,0.31,0.95,-0.06,0.67,17.40,-33.57
48640,0.12,1.17,-0.08,5.55,19.84,-30.76
48660,0.17,1.08,-0.10,8.00,12.27,-17.64
48680,0.26,0.96,-0.17,5.98,6.96,-12.82
48700,0.22,1.02,-0.11,-1.95,8.18,-15.08
48720,0.20,1.04,-0.05,-1.83,7.63,-14.34
48740,0.21,1.01,-0.06,0.67,5.80,-12.94
48760,0.16,1.03,-0.08,3.11,3.78,-6.77
48780,0.21,0.99,-0.11,1.22,0.73,-2.50
48800,0.23,0.98,-0.11,-0.79,0.67,-2.44
48820,0.22,0.99,-0.10,-1.22,1.40,-4.21
48840,0.22,0.99,-0.10,-0.18,2.20,-5.31
48860,0.20,1.00,-0.09,1.04,2.87,-6.29
48880,0.21,1.00,-0.09,1.40,3.17,-6.35
48900,0.17,1.00,-0.09,1.71,3.97,-6.10
48920,0.16,1.02,-0.08,1.59,1.04,-2.93
48940,0.20,0.99,-0.11,-0.73,-0.73,0.92
48960,0.21,0.99,-0.11,-1.28,-0.37,0.06
48980,0.21,0.99,-0.10,-1.28,0.79,-1.16
49000,0.20,0.99,-0.10,-0.73,1.22,-1.95
49020,0.20,1.00,-0.10,-0.73,1.04,-2.20
49040,0.20,1.00,-0.10,-0.43,1.40,-2.01
49060,0.20,1.00,-0.10,-0.24,1.46,-1.71
49080,0.20,0.99,-0.10,-0.31,1.59,-1.71
49100,0.19,1.00,-0.10,-0.67,1.71,-1.65
49120,0.19,1.00,-0.10,-0.12,1.22,-1.28
49140,0.20,1.00,-0.10,-0.55,0.55,-0.79
49160,0.20,0.99,-0.10,-0.61,0.85,-0.85
49180,0.20,1.00,-0.10,-0.49,1.22,-1.40
49200,0.19,1.00,-0.10,-0.24,1.89,-1.46
49220,0.19,1.00,-0.10,-0.31,1.28,-0.92
49240,0.19,0.99,-0.11,-0.24,0.85,-0.37
49260,0.20,0.99,-0.11,-0.24,0.61,-0.24
49280,0.20,0.99,-0.11,-0.49,0.79,-0.12
49300,0.20,1.00,-0.10,-0.31,0.92,-0.37
49320,0.20,0.99,-0.11,-0.12,1.16,-0.55
49340,0.19,1.00,-0.11,-0.55,1.16,-0.43
49360,0.19,1.00,-0.10,-0.24,0.55,0.06
49380,0.20,1.00,-0.10,-0.67,0.12,0.43
49400,0.20,1.00,-0.11,-0.79,0.00,0.98
49420,0.20,0.99,-0.11,-0.79,-0.06,1.10
49440,0.20,0.99,-0.11,-1.28,0.06,0.85
49460,0.20,1.00,-0.10,-1.28,0.24,1.04
49480,0.19,1.00,-0.10,-0.98,0.12,1.28
49500,0.20,0.99,-0.11,-1.28,-0.18,1.95
49520,0.20,1.00,-0.10,-1.34,-0.37,1.95
49540,0.19,1.00,-0.10,-1.34,-0.31,2.14
49560,0.20,1.00,-0.10,-1.16,-0.92,2.56
49580,0.22,0.99,-0.11,-0.37,-0.79,2.93
49600,0.21,0.99,-0.11,-0.92,-0.24,2.56
49620,0.21,0.99,-0.10,-1.04,-0.49,2.26
49640,0.20,1.00,-0.10,-0.85,-0.31,2.56
49660,0.21,1.00,-0.10,-0.98,-0.73,3.60
49680,0.21,1.00,-0.11,-0.73,-0.79,4.94
49700,0.21,1.00,-0.11,-2.20,-1.04,6.35
49720,0.21,1.01,-0.11,-2.87,-1.40,7.57
49740,0.21,1.02,-0.11,-3.11,-2.26,9.64
49760,0.23,0.99,-0.10,-2.44,-2.56,11.23
49780,0.22,1.01,-0.09,-1.95,-2.08,11.17
49800,0.21,1.03,-0.12,-0.79,-2.50,13.24
49820,0.23,1.02,-0.12,-1.28,-4.27,17.33
49840,0.24,1.05,-0.14,-3.11,-5.68,20.02
49860,0.24,1.06,-0.14,-4.46,-6.96,23.99
49880,0.28,1.02,-0.12,-5.86,-6.16,27.89
49900,0.30,0.99,-0.11,-9.46,-7.14,29.97
49920,0.29,1.00,-0.10,-11.17,-6.71,30.58
49940,0.30,0.99,-0.09,-12.57,-8.06,15.75
49960,0.32,0.99,-0.08,-13.24,-7.63,32.04
49980,0.33,0.98,-0.09,-14.04,-7.26,32.59
50000,0.32,1.00,-0.08,-15.08,-7.69,33.14
50020,0.35,0.97,-0.06,-16.60,-9.22,35.83
50040,0.37,0.96,-0.05,-17.52,-9.70,36.87
50060,0.41,0.91,-0.01,-17.76,-9.28,37.41
50080,0.43,0.86,0.01,-16.11,-6.10,33.69
50100,0.45,0.86,-0.00,-14.16,-5.00,30.03
50120,0.47,0.82,-0.00,-12.82,-3.54,26.49
50140,0.49,0.78,0.02,-10.07,-1.89,18.07
50160,0.49,0.79,0.02,-7.57,0.00,11.35
50180,0.50,0.77,0.04,-5.07,0.18,4.39
50200,0.52,0.67,0.09,-0.43,1.40,-7.51
50220,0.51,0.70,0.07,2.69,6.96,-21.18
50240,0.47,0.82,0.06,8.79,7.51,-32.10
50260,0.41,0.93,0.00,17.21,4.03,-33.02
50280,0.42,0.89,-0.04,19.35,6.65,-33.87
50300,0.43,0.85,-0.08,17.82,7.20,-36.56
50320,0.39,0.83,-0.08,12.51,10.93,-39.79
50340,0.23,1.25,-0.17,5.07,7.39,-35.34
50360,0.30,1.21,-0.08,1.53,-1.04,-18.80
50380,0.31,1.13,-0.11,-0.12,0.00,-8.97
50400,0.35,0.99,-0.11,-4.82,1.77,-1.53
50420,0.40,0.87,-0.09,-8.67,1.04,-2.08
50440,0.41,0.82,0.00,-10.93,1.71,-8.54
50460,0.28,1.07,0.07,-3.66,1.04,-13.55
50480,0.36,0.97,0.07,3.36,-0.85,-5.92
50500,0.39,0.87,-0.01,9.52,3.54,-7.14
50520,0.39,0.79,-0.06,10.99,6.84,-17.21
50540,0.38,0.82,-0.05,8.24,8.24,-25.94
50560,0.30,0.91,-0.03,8.36,10.19,-33.14
50580,0.23,1.12,-0.03,13.85,5.19,-22.22
50600,0.31,1.01,-0.11,15.69,8.12,-13.85
50620,0.36,0.88,-0.18,12.63,10.01,-16.78
50640,0.39,0.77,-0.21,-1.77,16.85,-32.47
50660,0.14,1.18,-0.15,-8.30,20.39,-40.10
50680,0.11,1.26,-0.01,-6.71,5.80,-23.07
50700,0.20,1.11,-0.04,1.71,0.49,-0.18
50720,0.28,0.94,-0.12,1.16,1.65,0.73
50740,0.31,0.90,-0.11,-1.53,3.48,-3.91
50760,0.35,0.87,-0.11,-3.66,6.47,-16.78
50780,0.15,1.08,-0.05,-2.87,12.94,-22.89
50800,0.12,1.13,-0.03,3.78,2.87,-11.96
50820,0.24,0.99,-0.13,4.58,-1.22,-0.06
50840,0.25,0.98,-0.09,-1.71,-0.85,-1.28
50860,0.25,0.98,-0.09,-2.38,0.49,-2.32
50880,0.25,0.98,-0.08,-1.65,0.85,-3.91
50900,0.24,0.99,-0.09,-0.55,2.87,-6.23
50920,0.21,1.00,-0.08,0.49,2.81,-5.68
50940,0.20,1.01,-0.09,0.43,0.92,-3.42
50960,0.24,0.98,-0.10,-1.28,-0.37,-0.43
50980,0.24,0.98,-0.09,-2.26,0.24,-1.40
51000,0.24,0.99,-0.09,-1.59,0.85,-2.26
51020,0.23,1.00,-0.08,-0.24,1.71,-3.48
51040,0.22,0.99,-0.09,0.49,1.59,-2.87
51060,0.23,0.99,-0.10,0.18,1.40,-2.32
51080,0.23,0.98,-0.10,-0.79,1.83,-2.99
51100,0.24,0.98,-0.10,-0.85,2.38,-4.21
51120,0.23,0.99,-0.09,-0.43,2.81,-5.43
51140,0.22,0.99,-0.09,0.55,2.93,-5.74
51160,0.22,0.99,-0.10,0.85,2.81,-5.86
51180,0.22,0.99,-0.10,0.49,2.99,-5.74
51200,0.22,0.99,-0.10,0.43,3.54,-5.92
51220,0.20,1.00,-0.09,1.04,3.05,-6.16
51240,0.20,1.00,-0.09,1.40,1.89,-5.07
51260,0.20,1.00,-0.10,1.34,1.34,-3.42
51280,0.21,0.99,-0.10,0.55,1.46,-2.50
51300,0.21,0.99,-0.10,0.31,1.65,-3.05
51320,0.21,0.99,-0.10,-0.06,1.83,-3.11
51340,0.20,1.00,-0.09,0.18,1.46,-2.69
51360,0.19,1.00,-0.09,0.43,1.16,-1.83
51380,0.20,0.99,-0.10,0.24,0.49,-0.24
51400,0.20,0.99,-0.10,0.12,0.79,-0.24
51420,0.21,0.99,-0.11,0.06,0.79,-0.67
51440,0.20,0.99,-0.11,-0.12,1.04,-0.67
51460,0.20,0.99,-0.10,-0.12,1.16,-0.67
51480,0.20,1.00,-0.10,-0.24,1.04,-0.49
51500,0.20,0.99,-0.11,0.00,1.10,-0.37
51520,0.21,0.99,-0.11,-0.24,1.16,-0.37
51540,0.20,0.99,-0.11,-0.31,1.22,-0.43
51560,0.20,0.99,-0.11,-0.12,1.10,-0.37
51580,0.21,0.99,-0.11,0.12,0.92,-0.12
51600,0.21,0.99,-0.11,-0.06,0.67,0.18
51620,0.21,0.99,-0.11,-0.31,0.79,0.31
51640,0.21,0.99,-0.11,-0.24,0.92,-0.06
51660,0.20,0.99,-0.11,-0.31,0.85,0.12
51680,0.20,0.99,-0.11,-0.55,0.49,0.37
51700,0.21,0.99,-0.11,-0.73,0.18,0.49
51720,0.21,0.99,-0.11,-0.79,0.37,0.61
51740,0.21,0.99,-0.11,-0.92,0.31,0.61
51760,0.21,0.99,-0.11,-1.10,0.43,0.55
51780,0.21,0.99,-0.11,-1.10,0.31,0.85
51800,0.21,0.99,-0.11,-0.92,0.18,0.92
51820,0.21,0.99,-0.11,-0.85,0.00,1.16
51840,0.21,1.00,-0.11,-1.28,0.12,1.22
51860,0.20,1.00,-0.11,-1.22,-0.18,1.34
51880,0.21,1.00,-0.10,-1.65,-0.49,2.08
51900,0.20,1.00,-0.10,-1.34,-0.73,2.69
51920,0.21,0.99,-0.11,-1.28,-1.10,3.23
51940,0.21,1.00,-0.11,-1.46,-1.34,4.33
51960,0.21,1.00,-0.10,-1.53,-1.46,6.47
51980,0.22,1.00,-0.12,-3.48,-2.32,8.06
52000,0.21,1.03,-0.11,-5.62,-2.62,9.64
52020,0.22,1.02,-0.12,-6.71,-3.48,13.98
52040,0.23,1.02,-0.09,-5.62,-3.05,15.63
52060,0.24,1.05,-0.09,-3.42,-3.60,18.31
52080,0.24,1.03,-0.12,-1.83,-3.54,20.39
52100,0.25,1.05,-0.13,-1.83,-4.09,25.27
52120,0.25,1.06,-0.14,-4.27,-4.58,29.24
52140,0.27,1.04,-0.13,-5.68,-5.74,32.53
52160,0.29,1.01,-0.12,-9.52,-7.39,35.77
52180,0.31,0.99,-0.10,-12.08,-8.36,36.99
52200,0.31,0.99,-0.07,-13.61,-8.67,37.17
52220,0.35,0.94,-0.07,-13.98,-7.93,37.17
52240,0.36,0.93,-0.07,-15.20,-7.08,36.19
52260,0.40,0.88,-0.07,-15.75,-6.96,33.69
52280,0.44,0.85,-0.04,-16.85,-5.80,28.20
52300,0.42,0.87,-0.01,-16.48,-4.15,23.62
52320,0.43,0.86,0.01,-14.28,-3.85,19.17
52340,0.44,0.87,-0.00,-10.80,-2.75,14.65
52360,0.44,0.86,0.01,-8.61,-1.22,10.80
52380,0.45,0.86,-0.00,-6.47,-0.98,7.75
52400,0.45,0.85,-0.00,-4.70,-0.61,2.99
52420,0.47,0.82,0.00,-1.95,-0.06,-0.18
52440,0.48,0.80,0.02,-0.06,1.10,-6.35
52460,0.49,0.74,0.02,2.75,2.87,-30.27
52480,0.38,0.97,-0.04,6.29,3.36,-26.86
52500,0.37,1.04,-0.01,8.73,-1.04,-23.32
52520,0.37,1.04,-0.03,8.61,-0.49,-17.58
52540,0.40,0.95,-0.09,5.80,3.48,-12.51
52560,0.43,0.89,-0.10,2.44,4.82,-14.53
52580,0.46,0.68,-0.01,-0.37,6.23,-20.94
52600,0.23,1.20,-0.04,-0.37,8.48,-30.27
52620,0.32,1.13,0.07,6.59,-3.54,-14.53
52640,0.35,0.99,-0.02,9.40,4.33,-6.53
52660,0.43,0.77,-0.14,7.81,8.18,-10.93
52680,0.42,0.76,-0.16,2.87,8.61,-22.22
52700,0.39,0.79,-0.00,-2.14,6.96,-33.57
52720,0.19,1.23,0.05,3.91,3.97,-32.96
52740,0.27,1.13,0.01,11.29,2.75,-17.09
52760,0.33,0.95,-0.08,14.89,7.20,-10.50
52780,0.38,0.81,-0.20,8.30,11.96,-20.26
52800,0.37,0.82,-0.10,0.55,10.93,-34.61
52820,0.20,1.09,-0.07,-2.81,13.98,-42.36
52840,0.16,1.22,-0.06,-0.67,7.69,-21.36
52860,0.24,1.06,-0.11,3.60,5.62,-11.23
52880,0.28,0.94,-0.16,2.44,6.65,-10.07
52900,0.30,0.91,-0.16,-2.99,7.81,-14.77
52920,0.32,0.93,-0.08,-7.57,12.15,-26.37
52940,0.15,1.08,-0.07,-4.27,18.86,-31.80
52960,0.10,1.17,0.06,7.32,9.40,-20.20
52980,0.22,0.99,-0.13,6.59,3.36,-5.13
53000,0.23,0.98,-0.12,1.71,3.54,-5.49
53020,0.22,1.00,-0.10,-0.43,3.91,-6.71
53040,0.24,0.99,-0.09,1.53,4.46,-8.24
53060,0.20,0.99,-0.09,3.78,7.87,-10.50
53080,0.11,1.05,-0.06,5.98,4.33,-6.90
53100,0.22,0.98,-0.13,1.22,-1.53,1.83
53120,0.22,0.98,-0.11,-0.98,-0.92,0.98
53140,0.22,0.98,-0.11,-1.65,0.37,-0.67
53160,0.22,0.99,-0.10,-0.92,2.38,-2.62
53180,0.21,0.99,-0.10,-0.06,2.62,-3.42
53200,0.22,0.99,-0.11,0.43,2.93,-4.33
53220,0.22,0.98,-0.12,0.73,4.33,-6.53
53240,0.16,1.01,-0.08,0.73,5.62,-7.87
53260,0.16,1.02,-0.08,0.98,0.98,-3.17
53280,0.20,0.99,-0.11,-0.18,-0.55,0.43
53300,0.20,0.99,-0.11,-0.61,0.18,-0.49
53320,0.20,0.99,-0.11,-0.49,0.98,-1.22
53340,0.20,0.99,-0.11,-0.49,1.22,-1.65
53360,0.20,0.99,-0.11,-0.79,1.40,-1.71
53380,0.20,1.00,-0.11,-0.61,1.46,-2.08
53400,0.20,0.99,-0.11,-0.43,1.65,-2.08
53420,0.20,0.99,-0.11,-0.18,2.14,-2.75
53440,0.18,1.00,-0.10,0.06,1.95,-2.50
53460,0.18,1.00,-0.10,0.37,1.16,-0.92
53480,0.19,1.00,-0.11,-0.12,0.00,0.24
53500,0.20,0.99,-0.11,-0.24,0.43,0.00
53520,0.20,0.99,-0.11,-0.43,1.04,-0.43
53540,0.20,1.00,-0.11,-0.37,1.40,-0.85
53560,0.19,1.00,-0.11,-0.43,0.98,-0.55
53580,0.19,0.99,-0.12,-0.73,0.67,-0.37
53600,0.20,0.99,-0.11,-1.16,0.85,-0.55
53620,0.20,0.99,-0.11,-1.34,1.22,-0.85
53640,0.19,1.00,-0.11,-1.10,1.16,-1.04
53660,0.19,1.00,-0.11,-0.79,1.28,-0.73
53680,0.19,1.00,-0.11,-0.73,0.79,-0.37
53700,0.19,0.99,-0.12,-0.79,0.31,0.24
53720,0.20,0.99,-0.11,-0.92,0.06,0.24
53740,0.20,0.99,-0.11,-1.22,0.61,-0.12
53760,0.20,0.99,-0.11,-1.28,0.85,-0.49
53780,0.19,1.00,-0.11,-1.04,1.16,-0.49
53800,0.19,1.00,-0.11,-0.67,0.49,0.24
53820,0.20,0.99,-0.11,-0.61,0.12,0.79
53840,0.20,0.99,-0.11,-0.49,0.06,0.73
53860,0.20,0.99,-0.11,-0.61,0.43,0.67
53880,0.19,1.00,-0.10,-0.79,0.55,0.55
53900,0.19,1.00,-0.11,-0.61,-0.18,1.71
53920,0.18,1.00,-0.11,-1.22,-0.49,2.32
53940,0.20,0.99,-0.11,-1.28,-1.65,3.23
53960,0.20,1.00,-0.11,-1.95,-1.34,3.72
53980,0.20,0.99,-0.12,-2.93,-1.77,5.00
54000,0.18,1.03,-0.09,-4.27,-3.48,7.45
54020,0.19,1.03,-0.08,-4.94,-4.76,12.39
54040,0.20,1.03,-0.10,-4.33,-5.25,17.88
54060,0.19,1.07,-0.12,-3.36,-5.86,21.00
54080,0.25,1.02,-0.12,-3.05,-8.48,25.15
54100,0.25,1.00,-0.14,-3.66,-6.84,24.35
54120,0.25,1.02,-0.15,-5.07,-6.41,24.41
54140,0.26,1.02,-0.14,-6.71,-7.39,25.70
54160,0.26,1.05,-0.16,-10.25,-5.80,27.16
54180,0.27,1.03,-0.13,-15.26,-7.39,30.88
54200,0.29,0.99,-0.11,-17.76,-7.93,32.84
54220,0.32,0.94,-0.08,-19.29,-8.24,33.08
54240,0.35,0.90,-0.06,-19.71,-7.63,30.33
54260,0.36,0.89,-0.04,-20.08,-7.32,27.65
54280,0.37,0.89,-0.02,-19.23,-6.84,24.23
54300,0.38,0.91,0.00,-16.11,-5.68,20.39
54320,0.39,0.91,0.01,-13.49,-4.15,18.37
54340,0.39,0.92,0.02,-10.19,-3.36,17.15
54360,0.40,0.91,0.03,-5.55,-2.14,15.81
54380,0.41,0.90,0.01,-3.54,-0.85,14.34
54400,0.43,0.86,0.01,-1.10,-0.43,11.84
54420,0.45,0.84,0.00,1.28,0.92,4.82
54440,0.50,0.68,0.01,2.69,2.87,-3.78
54460,0.45,0.76,-0.00,5.13,5.07,-18.07
54480,0.40,0.91,0.01,8.97,2.62,-27.53
54500,0.36,1.00,0.00,10.93,0.67,-25.21
54520,0.36,1.00,-0.07,10.56,3.66,-22.52
54540,0.37,0.96,-0.09,8.18,5.19,-20.51
54560,0.41,0.82,-0.13,1.83,7.69,-23.50
54580,0.32,0.94,-0.05,-1.71,8.00,-29.48
54600,0.23,1.20,0.01,0.00,2.99,-26.06
54620,0.31,1.06,-0.03,6.53,3.36,-7.57
54640,0.35,0.94,-0.09,7.63,5.86,-4.27
54660,0.36,0.90,-0.14,4.82,7.69,-8.06
54680,0.39,0.80,-0.06,0.92,5.19,-18.55
54700,0.29,0.92,0.01,1.16,7.63,-27.22
54720,0.23,1.06,0.00,4.39,5.49,-26.12
54740,0.30,0.98,-0.06,9.46,5.55,-16.24
54760,0.32,0.93,-0.12,9.70,8.48,-16.91
54780,0.34,0.91,-0.13,7.14,10.07,-22.77
54800,0.36,0.93,-0.09,1.77,17.15,-35.10
54820,0.07,1.24,-0.13,1.34,19.71,-34.67
54840,0.16,1.14,-0.11,2.01,5.92,-14.89
54860,0.24,1.01,-0.12,-0.24,1.46,-4.15
54880,0.26,0.97,-0.11,-2.81,3.78,-6.10
54900,0.25,1.00,-0.06,-3.36,3.05,-8.30
54920,0.29,0.95,-0.08,-1.46,8.12,-12.57
54940,0.25,0.95,-0.13,-0.06,13.24,-19.65
54960,0.12,1.07,-0.06,3.78,11.66,-20.69
54980,0.14,1.04,-0.10,6.23,4.33,-9.70
55000,0.22,1.00,-0.10,2.62,1.22,-5.74
55020,0.20,1.01,-0.09,1.16,1.89,-5.62
55040,0.20,1.01,-0.07,0.85,1.53,-4.21
55060,0.23,0.98,-0.11,1.59,2.32,-3.60
55080,0.23,0.98,-0.12,1.16,3.72,-5.86
55100,0.22,0.99,-0.11,1.46,5.92,-8.73
55120,0.15,1.02,-0.08,2.50,5.37,-8.97
55140,0.17,1.01,-0.10,1.71,1.16,-3.48
55160,0.20,0.99,-0.11,0.73,0.55,-1.04
55180,0.20,0.99,-0.11,0.49,1.10,-1.40
55200,0.20,0.99,-0.11,0.73,1.34,-1.83
55220,0.20,0.99,-0.11,0.55,1.77,-2.20
55240,0.20,0.99,-0.12,-0.31,1.65,-2.87
55260,0.20,0.99,-0.12,-0.98,1.59,-3.72
55280,0.20,0.99,-0.12,-1.22,2.44,-4.82
55300,0.20,1.00,-0.11,-0.85,2.69,-6.16
55320,0.18,1.00,-0.10,-0.67,2.75,-6.10
55340,0.18,1.00,-0.10,0.06,2.26,-5.37
55360,0.18,1.00,-0.11,0.31,1.65,-3.78
55380,0.18,1.00,-0.11,0.00,1.53,-2.69
55400,0.18,1.00,-0.11,0.00,1.34,-2.20
55420,0.18,1.00,-0.11,-0.06,1.04,-2.44
55440,0.18,1.00,-0.11,0.06,1.10,-1.83
55460,0.18,1.00,-0.11,-0.18,0.67,-1.40
55480,0.18,1.00,-0.11,-0.31,0.85,-1.46
55500,0.18,1.00,-0.12,-0.49,0.92,-1.04
55520,0.18,1.00,-0.11,-0.67,0.37,-1.16
55540,0.18,1.00,-0.12,-0.73,0.61,-0.73
55560,0.18,1.00,-0.12,-0.92,0.73,-0.67
55580,0.18,1.00,-0.11,-0.98,0.67,-0.73
55600,0.18,1.00,-0.11,-0.98,0.79,-0.67
55620,0.18,1.00,-0.12,-0.73,0.61,-0.55
55640,0.18,1.00,-0.12,-0.85,0.79,-0.55
55660,0.18,1.00,-0.12,-1.10,0.98,-0.67
55680,0.18,1.00,-0.12,-1.22,1.04,-0.73
55700,0.18,1.00,-0.11,-1.10,0.98,-0.67
55720,0.18,1.00,-0.11,-1.16,1.10,-0.73
55740,0.18,1.00,-0.11,-1.10,0.85,-0.73
55760,0.18,1.00,-0.12,-1.04,0.92,-0.43
55780,0.18,1.00,-0.12,-1.04,0.98,-0.55
55800,0.18,1.00,-0.12,-1.16,0.79,-0.55
55820,0.18,1.00,-0.11,-1.16,0.73,-0.37
55840,0.18,1.00,-0.11,-1.10,0.67,-0.18
55860,0.18,0.99,-0.12,-1.28,0.67,0.12
55880,0.18,1.00,-0.11,-1.04,0.73,-0.12
55900,0.18,1.00,-0.12,-0.92,0.67,0.06
55920,0.18,1.00,-0.11,-1.04,0.55,0.18
55940,0.17,1.00,-0.11,-0.98,-0.18,1.16
55960,0.18,1.00,-0.11,-0.92,-0.98,1.89
55980,0.17,1.00,-0.11,-0.79,-1.04,2.08
56000,0.19,0.99,-0.12,-0.67,-1.40,2.50
56020,0.19,0.99,-0.12,-0.98,-0.49,2.38
56040,0.19,1.00,-0.11,-1.04,-0.31,2.20
56060,0.18,1.00,-0.11,-0.92,-0.55,2.99
56080,0.17,1.01,-0.10,-1.28,-1.28,5.31
56100,0.20,0.99,-0.12,-3.05,-2.38,8.18
56120,0.19,1.00,-0.12,-6.65,-2.75,9.58
56140,0.19,1.03,-0.10,-6.96,-3.54,11.84
56160,0.20,1.03,-0.08,-6.90,-4.58,15.26
56180,0.23,1.00,-0.12,-5.55,-3.78,17.27
56200,0.22,1.02,-0.13,-6.35,-4.76,18.68
56220,0.21,1.04,-0.11,-6.77,-6.41,20.20
56240,0.24,1.02,-0.12,-7.63,-7.63,22.28
56260,0.24,1.07,-0.15,-8.42,-7.87,24.90
56280,0.26,1.05,-0.14,-10.31,-8.30,28.75
56300,0.26,1.06,-0.16,-14.04,-7.45,32.10
56320,0.27,1.06,-0.13,-17.70,-10.31,38.27
56340,0.28,1.04,-0.09,-20.39,-11.96,41.32
56360,0.29,1.00,-0.07,-22.40,-11.96,43.64
56380,0.33,0.99,-0.04,-23.86,-12.02,46.81
56400,0.36,0.94,-0.04,-25.15,-10.80,47.36
56420,0.38,0.91,-0.02,-26.49,-8.36,46.63
56440,0.42,0.84,0.01,-26.00,-6.90,43.88
56460,0.45,0.83,0.06,-23.99,-4.82,38.82
56480,0.45,0.83,0.08,-20.14,-3.05,34.18
56500,0.49,0.79,0.11,-11.23,-1.71,26.06
56520,0.50,0.80,0.09,-6.23,0.43,20.08
56540,0.51,0.80,0.06,-1.77,1.65,13.61
56560,0.52,0.78,0.01,2.75,1.65,3.66
56580,0.54,0.70,0.09,5.62,2.26,-5.62
56600,0.52,0.64,0.09,9.22,4.46,-18.25
56620,0.47,0.83,0.02,13.55,4.70,-33.75
56640,0.45,0.93,0.02,19.04,-0.18,-31.07
56660,0.41,0.97,0.02,19.90,3.11,-31.62
56680,0.45,0.88,0.01,20.87,4.21,-31.49
56700,0.40,0.86,0.07,21.36,8.30,-37.66
56720,0.32,1.03,-0.10,19.17,10.62,-34.79
56740,0.36,1.04,-0.16,13.24,6.59,-28.44
56760,0.36,1.03,-0.12,7.87,3.91,-23.07
56780,0.39,0.93,-0.07,5.19,6.04,-22.83
56800,0.38,0.81,-0.02,3.60,10.62,-28.50
56820,0.27,1.10,0.01,7.69,5.55,-26.00
56840,0.32,1.03,-0.11,8.42,8.00,-17.27
56860,0.33,1.00,-0.13,7.81,5.98,-16.11
56880,0.37,0.90,-0.08,6.53,6.65,-18.68
56900,0.39,0.80,-0.07,6.29,9.70,-26.37
56920,0.25,0.98,-0.06,5.25,13.79,-34.30
56940,0.22,1.12,-0.05,7.14,7.57,-21.48
56960,0.25,1.07,-0.19,3.66,9.34,-17.82
56980,0.26,1.03,-0.13,0.85,5.62,-15.56
57000,0.27,1.01,-0.10,-0.98,5.25,-14.40
57020,0.36,0.85,-0.10,-1.65,10.38,-18.92
57040,0.22,0.99,-0.09,-2.56,18.07,-27.71
57060,0.10,1.16,-0.07,-0.92,10.25,-5.19
57080,0.21,1.05,-0.10,-0.24,-0.43,-4.15
57100,0.23,1.02,-0.09,-1.95,-1.83,-2.14
57120,0.25,0.98,-0.08,-1.89,-0.24,-1.28
57140,0.26,0.96,-0.10,-1.04,2.93,-4.82
57160,0.29,0.93,-0.12,-0.73,5.31,-8.67
57180,0.31,0.92,-0.13,-0.73,9.09,-15.50
57200,0.08,1.09,-0.03,5.19,11.17,-21.30
57220,0.10,1.09,-0.08,6.29,3.30,-6.16
57240,0.22,0.99,-0.12,2.20,-2.69,0.73
57260,0.22,0.98,-0.11,-1.22,0.37,-0.79
57280,0.22,0.99,-0.10,-1.53,0.67,-2.14
57300,0.22,0.98,-0.11,-0.12,1.65,-3.36
57320,0.23,0.98,-0.12,0.37,2.81,-5.55
57340,0.24,0.97,-0.12,0.55,4.39,-7.63
57360,0.22,0.99,-0.12,1.04,6.10,-10.25
57380,0.13,1.02,-0.07,2.69,3.23,-7.39
57400,0.20,1.00,-0.11,1.65,-3.54,2.01
57420,0.22,0.98,-0.12,-0.12,-1.89,2.38
57440,0.22,0.98,-0.12,-0.24,-1.16,0.43
57460,0.21,0.98,-0.12,-0.85,0.79,-0.92
57480,0.21,0.99,-0.12,-1.10,1.83,-2.26
57500,0.21,0.99,-0.11,-1.22,2.26,-3.05
57520,0.20,0.99,-0.12,-0.79,2.32,-4.09
57540,0.21,0.99,-0.12,-1.10,3.42,-4.82
57560,0.18,1.00,-0.10,-0.49,4.03,-5.68
57580,0.17,1.01,-0.09,0.61,-0.67,-0.24
57600,0.20,0.99,-0.12,0.49,-1.46,1.95
57620,0.21,0.98,-0.12,0.12,-0.85,1.53
57640,0.21,0.99,-0.12,-0.24,0.79,-0.37
57660,0.20,0.99,-0.12,-0.43,1.53,-1.22
57680,0.20,1.00,-0.11,-0.92,1.34,-1.46
57700,0.20,0.99,-0.12,-0.92,1.46,-1.34
57720,0.20,0.99,-0.12,-0.92,1.46,-1.53
57740,0.20,0.99,-0.11,-0.79,1.77,-1.65
57760,0.19,0.99,-0.11,-0.18,1.71,-1.59
57780,0.19,1.00,-0.11,-0.12,-0.37,0.67
57800,0.20,0.99,-0.12,-0.43,-0.43,0.67
57820,0.20,0.99,-0.12,-0.67,0.37,-0.06
57840,0.20,0.99,-0.12,-1.04,1.04,-0.49
57860,0.20,0.99,-0.12,-0.98,1.22,-0.85
57880,0.19,0.99,-0.12,-0.79,1.10,-0.61
57900,0.20,0.99,-0.12,-0.67,0.73,-0.43
57920,0.20,0.99,-0.12,-0.73,1.04,-0.55
57940,0.20,0.99,-0.12,-0.92,1.28,-1.04
57960,0.19,1.00,-0.11,-0.73,1.28,-0.92
57980,0.19,1.00,-0.12,-0.67,0.61,-0.24
58000,0.19,1.00,-0.12,-0.85,0.24,0.43
58020,0.20,0.99,-0.12,-1.10,0.31,0.49
58040,0.20,0.99,-0.12,-1.10,0.37,0.00
58060,0.20,0.99,-0.12,-0.98,0.73,-0.24
58080,0.20,0.99,-0.12,-1.04,0.49,-0.18
58100,0.19,0.99,-0.12,-0.98,0.61,-0.18
58120,0.19,1.00,-0.12,-0.92,0.31,0.24
58140,0.19,1.00,-0.11,-0.98,0.12,0.79
58160,0.20,0.99,-0.12,-0.85,0.06,1.16
58180,0.20,0.99,-0.12,-1.10,0.00,1.16
58200,0.21,0.99,-0.12,-1.10,0.49,0.67
58220,0.20,0.99,-0.11,-1.34,0.55,0.61
58240,0.20,1.00,-0.11,-1.28,0.24,0.85
58260,0.20,1.00,-0.11,-0.85,-0.18,1.83
58280,0.20,0.99,-0.12,-1.22,-0.12,1.83
58300,0.18,1.01,-0.11,-1.89,-0.92,2.38
58320,0.20,1.01,-0.10,-1.40,-2.08,4.39
58340,0.21,0.99,-0.12,0.06,-1.10,6.10
58360,0.19,1.01,-0.11,-0.06,-1.04,7.14
58380,0.18,1.02,-0.10,-0.98,-2.26,10.68
58400,0.20,1.04,-0.11,-1.28,-3.85,18.13
58420,0.21,1.03,-0.13,-0.79,-4.03,22.40
58440,0.23,1.02,-0.13,-0.67,-4.70,24.72
58460,0.26,1.00,-0.16,-1.83,-5.31,25.51
58480,0.26,1.00,-0.16,-3.60,-4.52,24.05
58500,0.30,0.98,-0.16,-5.43,-5.49,24.48
58520,0.29,1.00,-0.13,-9.46,-5.55,23.44
58540,0.29,1.01,-0.11,-10.86,-5.74,24.23
58560,0.29,1.02,-0.10,-11.78,-5.98,25.21
58580,0.30,1.02,-0.08,-11.66,-6.10,27.95
58600,0.32,0.99,-0.10,-11.90,-5.62,29.42
58620,0.32,0.99,-0.10,-13.12,-5.92,29.85
58640,0.34,0.96,-0.09,-13.98,-7.32,30.82
58660,0.37,0.93,-0.07,-14.16,-7.69,30.09
58680,0.38,0.93,-0.08,-15.38,-7.14,29.11
58700,0.39,0.92,-0.07,-16.54,-6.53,27.04
58720,0.41,0.89,-0.04,-17.94,-5.25,25.15
58740,0.42,0.86,-0.03,-17.64,-3.85,22.52
58760,0.43,0.86,0.01,-16.48,-3.48,19.04
58780,0.45,0.85,0.03,-12.57,-2.69,14.22
58800,0.46,0.82,0.04,-8.91,-2.50,10.13
58820,0.48,0.81,0.03,-5.00,-1.40,4.76
58840,0.53,0.65,0.07,0.06,0.73,-6.77
58860,0.56,0.54,0.03,2.50,5.74,-23.25
58880,0.47,0.63,-0.01,5.74,8.67,-42.79
58900,0.31,1.11,-0.03,10.56,-0.24,-49.50
58920,0.31,1.13,0.05,15.81,-2.69,-38.15
58940,0.36,1.05,0.07,18.49,0.43,-31.25
58960,0.40,0.76,-0.03,18.68,16.17,-31.19
58980,0.26,0.94,-0.13,15.20,21.73,-38.70
59000,0.27,1.13,-0.21,10.01,12.39,-33.87
59020,0.25,1.19,-0.03,7.51,3.36,-19.41
59040,0.31,1.01,-0.07,9.28,5.25,-13.61
59060,0.37,0.87,-0.10,7.81,8.79,-15.14
59080,0.32,0.88,-0.11,3.78,12.76,-26.18
59100,0.27,1.02,-0.11,1.95,6.41,-24.48
59120,0.28,1.01,-0.11,0.61,5.13,-21.00
59140,0.28,1.01,-0.11,0.18,4.88,-19.59
59160,0.31,0.92,-0.10,0.37,9.03,-21.73
59180,0.34,0.85,-0.12,-0.37,15.08,-28.99
59200,0.18,1.01,-0.17,-2.99,21.18,-35.52
59220,0.11,1.19,0.00,2.08,2.20,-18.74
59240,0.19,1.06,-0.08,2.50,-1.04,-5.31
59260,0.23,0.99,-0.10,0.24,-0.12,-2.38
59280,0.24,0.97,-0.11,-2.38,1.71,-4.39
59300,0.25,0.96,-0.12,-2.99,3.54,-7.02
59320,0.27,0.95,-0.12,-2.32,4.39,-11.17
59340,0.12,1.06,-0.06,1.28,5.37,-13.43
59360,0.16,1.06,-0.05,1.83,-3.48,-5.68
59380,0.22,1.00,-0.09,-0.12,-2.38,0.00
59400,0.21,0.99,-0.10,-1.53,-0.06,-1.10
59420,0.21,0.99,-0.10,-1.59,0.37,-2.14
59440,0.21,0.99,-0.10,-0.55,1.10,-2.62
59460,0.21,0.99,-0.10,0.73,1.53,-3.23
59480,0.22,0.98,-0.11,1.10,2.44,-4.46
59500,0.23,0.98,-0.11,1.71,4.52,-6.77
59520,0.21,0.99,-0.11,2.26,7.14,-10.44
59540,0.12,1.04,-0.07,2.81,2.87,-4.64
59560,0.19,1.00,-0.11,1.59,-0.98,1.59
59580,0.21,0.99,-0.12,1.04,-0.73,1.83
59600,0.21,0.99,-0.11,0.79,0.18,0.31
59620,0.20,0.99,-0.11,0.49,1.10,-0.67
59640,0.20,0.99,-0.12,0.24,1.34,-1.40
59660,0.20,0.99,-0.11,-0.43,2.08,-2.38
59680,0.21,0.99,-0.12,-0.37,2.56,-3.11
59700,0.20,0.99,-0.12,-0.12,3.30,-4.46
59720,0.19,0.99,-0.11,0.18,3.97,-5.74
59740,0.16,1.01,-0.09,0.73,3.05,-5.31
59760,0.17,1.00,-0.10,0.79,1.71,-2.56
59780,0.19,1.00,-0.11,0.12,0.49,-0.67
59800,0.19,0.99,-0.11,-0.43,0.67,-0.85
59820,0.19,0.99,-0.11,-0.43,0.98,-0.85
59840,0.19,0.99,-0.11,-0.67,1.28,-1.53
59860,0.19,1.00,-0.11,-0.73,1.22,-1.46
59880,0.19,1.00,-0.12,-0.61,1.40,-1.77
59900,0.19,1.00,-0.11,-0.37,1.53,-1.71
59920,0.18,1.00,-0.11,-0.37,1.46,-1.95
59940,0.18,1.00,-0.11,-0.24,1.10,-1.04
59960,0.18,1.00,-0.11,-0.24,0.37,-0.37
59980,0.18,0.99,-0.11,-0.61,0.43,-0.43
60000,0.19,0.99,-0.12,-0.67,0.55,-0.55
60020,0.19,1.00,-0.12,-0.61,0.98,-0.61
60040,0.18,0.99,-0.12,-0.79,0.92,-0.61
60060,0.18,1.00,-0.11,-0.79,0.85,-0.49
60080,0.18,0.99,-0.12,-1.04,0.92,-0.37
60100,0.19,1.00,-0.12,-0.73,0.67,-0.12
60120,0.19,0.99,-0.12,-0.61,0.85,-0.18
60140,0.18,1.00,-0.12,-0.73,0.79,-0.31
60160,0.18,1.00,-0.12,-0.85,0.73,0.12
60180,0.19,1.00,-0.12,-0.79,0.49,0.37
60200,0.19,0.99,-0.12,-0.79,0.49,0.43
60220,0.16,0.99,-0.12,-0.79,0.55,0.18
60240,0.19,0.99,-0.12,-0.85,0.67,-0.24
60260,0.18,1.00,-0.12,-0.73,0.79,0.06
60280,0.18,1.00,-0.11,-0.73,0.18,0.92
60300,0.19,0.99,-0.12,-0.73,0.00,1.53
60320,0.19,0.99,-0.12,-0.79,-0.06,1.34
60340,0.19,0.99,-0.12,-0.85,0.06,1.46
60360,0.18,1.00,-0.12,-0.98,-0.18,1.71
60380,0.18,1.00,-0.11,-1.28,-0.37,2.14
60400,0.18,1.00,-0.12,-1.53,-0.98,2.81
60420,0.19,1.00,-0.12,-2.20,-1.95,4.82
60440,0.19,1.00,-0.12,-3.54,-2.01,5.86
60460,0.19,1.01,-0.10,-4.33,-2.75,7.14
60480,0.20,1.00,-0.11,-4.70,-3.11,9.77
60500,0.20,1.00,-0.11,-5.13,-3.36,10.38
60520,0.22,0.99,-0.12,-6.35,-3.30,11.29
60540,0.20,1.03,-0.10,-8.36,-4.15,12.82
60560,0.18,1.08,-0.10,-7.45,-5.13,17.03
60580,0.22,1.06,-0.09,-5.68,-8.48,23.19
60600,0.25,1.04,-0.12,-3.36,-7.63,27.16
60620,0.26,1.04,-0.13,-3.30,-7.51,29.60
60640,0.28,1.03,-0.13,-5.92,-5.43,30.76
60660,0.29,0.98,-0.16,-11.54,-6.23,31.49
60680,0.28,1.00,-0.13,-15.69,-7.08,31.07
60700,0.29,1.02,-0.10,-18.68,-8.36,31.92
60720,0.31,1.00,-0.07,-20.32,-8.18,33.69
60740,0.31,0.99,-0.06,-20.57,-6.90,35.89
60760,0.34,0.97,-0.07,-21.85,-7.08,37.48
60780,0.37,0.92,-0.05,-23.80,-6.04,37.84
60800,0.38,0.89,-0.04,-25.33,-4.58,36.44
60820,0.41,0.88,0.01,-24.54,-5.31,34.85
60840,0.43,0.87,0.04,-22.34,-3.72,32.84
60860,0.47,0.83,0.09,-16.54,-2.26,29.17
60880,0.48,0.81,0.08,-10.99,0.49,22.77
60900,0.49,0.79,0.06,-6.23,1.65,16.30
60920,0.52,0.71,0.06,-0.37,2.08,3.36
60940,0.53,0.66,0.12,4.33,2.81,-8.06
60960,0.48,0.78,0.04,11.11,4.70,-21.42
60980,0.42,0.93,-0.02,16.24,0.00,-26.49
61000,0.43,0.93,-0.07,14.89,0.43,-26.37
61020,0.44,0.91,-0.05,13.12,1.16,-27.53
61040,0.48,0.72,0.10,13.49,5.13,-33.75
61060,0.26,1.05,0.03,15.93,11.72,-41.69
61080,0.31,1.11,-0.00,20.51,2.62,-31.31
61100,0.30,1.12,-0.12,17.40,5.19,-16.54
61120,0.38,0.94,-0.12,14.65,7.14,-12.70
61140,0.44,0.71,-0.12,11.47,10.07,-16.36
61160,0.43,0.70,-0.12,-0.31,14.04,-36.56
61180,0.24,1.10,-0.05,-3.85,7.57,-42.36
61200,0.23,1.19,0.01,-0.37,2.32,-34.85
61220,0.28,1.09,0.05,7.87,3.78,-22.52
61240,0.41,0.75,-0.07,16.11,15.87,-26.06
61260,0.43,0.70,-0.10,15.20,25.63,-42.48
61280,0.21,1.05,-0.24,10.80,33.81,-56.58
61300,0.06,1.34,-0.12,2.62,11.90,-29.97
61320,0.15,1.16,-0.05,1.16,-2.81,-6.96
61340,0.26,0.99,-0.09,-0.73,-2.44,1.71
61360,0.31,0.91,-0.13,-2.20,3.11,-5.07
61380,0.31,0.90,-0.14,-3.23,9.28,-13.85
61400,0.23,0.98,-0.12,-2.32,12.63,-21.97
61420,0.06,1.13,-0.02,6.59,4.76,-18.19
61440,0.19,1.01,-0.13,4.39,-3.42,-3.60
61460,0.22,0.98,-0.12,-1.34,-1.10,-1.16
61480,0.22,0.99,-0.10,-2.75,-0.49,-3.97
61500,0.21,1.00,-0.10,-1.95,0.85,-4.52
61520,0.21,0.99,-0.10,-0.37,0.55,-4.82
61540,0.21,0.99,-0.11,1.22,0.55,-5.68
61560,0.21,0.99,-0.12,1.16,1.89,-6.35
61580,0.21,0.99,-0.12,0.55,3.42,-7.51
61600,0.17,1.00,-0.10,0.37,3.30,-6.77
61620,0.16,1.01,-0.10,0.43,-0.55,-1.04
61640,0.20,0.99,-0.11,-1.16,-2.01,1.71
61660,0.21,0.99,-0.12,-1.46,-1.22,-14.77
