timestamp,accX,accY,accZ,gyrX,gyrY,gyrZ
0,0.23,0.98,-0.15,-2.75,-0.18,-0.61
20,0.23,0.97,-0.18,-3.42,-0.24,-0.98
40,0.22,0.98,-0.16,-4.03,-0.67,-1.40
60,0.23,0.98,-0.16,-4.21,-0.79,-1.22
80,0.22,0.98,-0.16,-4.52,-0.98,-1.34
100,0.23,0.98,-0.16,-5.13,-1.83,-0.73
120,0.22,0.99,-0.15,-5.86,-2.14,-0.43
140,0.23,0.98,-0.15,-5.86,-2.87,-0.06
160,0.23,0.99,-0.14,-6.47,-2.93,0.06
180,0.23,0.99,-0.14,-6.53,-2.87,0.24
200,0.23,0.98,-0.14,-6.77,-2.87,0.55
220,0.23,0.99,-0.13,-5.80,-2.56,0.61
240,0.23,0.98,-0.14,-5.49,-2.20,0.73
260,0.23,0.99,-0.14,-5.80,-2.69,0.79
280,0.23,0.99,-0.12,-6.23,-2.81,1.10
300,0.22,1.01,-0.12,-4.94,-3.36,1.53
320,0.22,1.01,-0.14,-5.19,-3.42,2.99
340,0.25,0.98,-0.14,-5.19,-3.66,4.58
360,0.20,1.06,-0.16,-5.98,-3.42,4.94
380,0.20,1.07,-0.10,-6.41,-8.67,11.11
400,0.24,0.99,-0.08,-4.21,-7.93,17.70
420,0.29,0.92,-0.16,-4.82,-3.48,14.59
440,0.29,0.92,-0.16,-6.47,-2.08,11.11
460,0.26,1.00,-0.13,-8.61,-3.36,8.42
480,0.24,1.06,-0.10,-9.16,-6.23,12.27
500,0.27,1.05,-0.11,-9.16,-8.36,17.52
520,0.23,1.11,-0.13,-9.46,-7.32,24.84
540,0.27,1.06,-0.12,-13.43,-10.86,32.96
560,0.32,1.00,-0.11,-15.87,-10.86,36.80
580,0.31,1.01,-0.17,-19.29,-7.39,37.48
600,0.30,1.00,-0.11,-27.10,-8.18,41.56
620,0.35,0.97,-0.07,-31.07,-11.05,44.62
640,0.36,0.93,-0.04,-32.53,-8.54,45.65
660,0.40,0.93,-0.07,-33.94,-7.08,41.63
680,0.41,0.95,-0.02,-34.55,-7.57,41.56
700,0.43,0.91,0.01,-35.03,-8.00,42.79
720,0.50,0.75,0.01,-34.12,-9.46,39.25
740,0.52,0.72,0.01,-33.39,-6.77,30.58
760,0.54,0.68,0.11,-30.94,-5.86,21.30
780,0.59,0.55,0.17,-18.49,-3.78,1.34
800,0.66,0.39,0.20,-9.83,-0.79,-20.57
820,0.60,0.47,0.28,-0.98,4.52,-50.35
840,0.41,0.84,0.23,24.48,4.58,-73.18
860,0.35,0.94,0.13,35.28,6.65,-75.68
880,0.43,0.73,0.03,37.23,3.11,-73.73
900,0.40,0.68,-0.09,31.56,16.17,-91.74
920,0.22,1.09,-0.14,17.64,17.40,-97.84
940,0.07,1.36,-0.05,14.59,17.03,-88.50
960,0.12,1.53,0.13,21.42,5.98,-51.27
980,0.16,1.33,-0.12,47.12,23.56,-33.33
1000,0.34,1.06,-0.27,53.71,28.50,-20.75
1020,0.15,1.06,-0.18,39.61,33.94,-21.97
1040,0.13,1.04,-0.08,10.38,17.33,-10.56
1060,0.18,1.02,-0.04,4.70,11.54,-5.25
1080,0.20,1.00,-0.07,7.39,12.15,-2.56
1100,0.21,0.98,-0.12,13.18,9.83,-4.03
1120,0.19,0.98,-0.15,13.06,8.18,-5.86
1140,0.19,0.98,-0.15,9.28,4.64,-6.41
1160,0.19,0.99,-0.13,3.05,1.22,-5.98
1180,0.19,0.99,-0.12,1.22,0.24,-6.04
1200,0.18,1.00,-0.11,0.49,0.85,-5.07
1220,0.17,0.97,-0.11,0.98,1.10,-2.08
1240,0.18,1.00,-0.12,0.18,1.22,-0.12
1260,0.19,1.01,-0.09,0.24,0.67,0.92
1280,0.20,0.98,-0.14,2.26,1.40,0.61
1300,0.19,0.99,-0.14,0.31,1.28,0.37
1320,0.19,0.99,-0.13,-2.01,1.34,-0.18
1340,0.18,1.00,-0.12,-2.32,0.85,0.24
1360,0.19,0.99,-0.13,-2.20,0.55,0.85
1380,0.19,0.99,-0.13,-2.20,0.31,0.98
1400,0.19,0.99,-0.13,-2.56,0.43,1.40
1420,0.18,0.99,-0.13,-4.21,-0.67,1.95
1440,0.17,1.00,-0.12,-5.37,-2.01,2.38
1460,0.14,1.00,-0.10,-6.65,-4.88,4.52
1480,0.18,1.01,-0.14,-15.14,-14.53,13.73
1500,0.21,1.01,-0.10,-19.47,-18.62,16.48
1520,0.18,1.05,-0.10,-20.20,-17.70,17.27
1540,0.20,1.12,-0.07,-20.87,-18.49,27.89
1560,0.19,1.16,-0.13,-13.92,-15.44,34.48
1580,0.22,1.24,-0.11,-8.67,-17.64,42.91
1600,0.26,1.11,-0.24,-8.91,-6.90,56.27
1620,0.25,1.12,-0.23,-16.30,-10.62,59.88
1640,0.28,1.06,-0.17,-24.48,-14.47,64.33
1660,0.30,0.99,-0.09,-34.97,-14.40,66.77
1680,0.33,0.94,-0.03,-39.49,-14.77,68.85
1700,0.39,0.85,0.03,-42.18,-12.82,70.86
1720,0.46,0.75,0.08,-40.04,-6.47,63.17
1740,0.52,0.65,0.07,-35.71,-2.87,53.10
1760,0.56,0.61,0.12,-29.97,-2.20,39.67
1780,0.58,0.60,0.15,-23.44,-2.44,17.33
1800,0.57,0.65,0.17,-11.29,-2.50,3.72
1820,0.56,0.70,0.18,0.00,-2.01,-9.40
1840,0.59,0.63,0.21,9.83,0.12,-21.61
1860,0.57,0.52,0.13,24.23,5.86,-49.68
1880,0.52,0.55,-0.02,26.86,9.28,-68.54
1900,0.37,0.93,-0.07,23.13,9.40,-86.06
1920,0.28,1.17,0.11,19.65,-1.65,-67.44
1940,0.39,0.84,0.07,22.34,4.88,-56.15
1960,0.41,0.56,-0.06,23.68,16.17,-68.42
1980,0.01,1.42,-0.05,23.44,18.13,-81.05
2000,0.22,1.50,-0.04,33.51,3.30,-50.96
2020,0.24,1.26,-0.28,42.42,12.08,-27.89
2040,0.35,0.84,-0.38,10.07,8.61,-24.72
2060,0.18,1.06,-0.19,-12.39,17.52,-41.69
2080,-0.09,1.30,0.17,-8.91,-3.48,-27.40
2100,0.26,1.02,-0.03,-8.06,-8.91,-1.71
2120,0.27,0.98,-0.05,-4.88,-7.87,-4.58
2140,0.29,0.94,-0.09,-5.00,0.12,-6.77
2160,0.25,0.97,-0.07,-7.57,-0.79,-14.34
2180,0.25,0.99,-0.03,-2.87,-0.18,-16.11
2200,0.26,0.99,-0.05,1.83,0.79,-18.49
2220,0.19,1.01,-0.05,7.20,3.05,-21.67
2240,0.11,1.04,-0.04,5.43,-0.92,-12.33
2260,0.19,1.00,-0.05,-0.55,-3.30,-5.00
2280,0.19,1.00,-0.06,-1.40,-0.55,-4.09
2300,0.19,1.00,-0.04,-1.46,1.46,-2.99
2320,0.19,1.00,-0.04,-0.61,2.50,-2.32
2340,0.20,1.00,-0.05,1.04,3.36,-1.83
2360,0.19,1.00,-0.06,1.65,3.91,-1.40
2380,0.19,1.00,-0.06,2.14,3.91,-1.65
2400,0.19,1.00,-0.06,1.59,2.56,-0.79
2420,0.19,1.00,-0.06,1.53,1.83,-0.73
2440,0.19,1.00,-0.06,1.28,1.71,-0.55
2460,0.19,1.00,-0.06,1.04,1.71,-0.37
2480,0.19,1.00,-0.06,0.98,2.62,-0.06
2500,0.19,1.00,-0.06,0.92,3.36,-0.06
2520,0.19,1.00,-0.06,0.73,2.99,1.04
2540,0.17,1.00,-0.06,-0.06,2.08,2.14
2560,0.18,1.01,-0.05,-0.92,1.16,2.62
2580,0.21,0.99,-0.07,1.65,3.05,4.03
2600,0.20,1.00,-0.08,0.79,5.00,4.15
2620,0.13,1.03,-0.04,-1.28,4.15,6.53
2640,0.17,1.03,-0.05,-6.71,1.28,13.61
2660,0.22,1.01,-0.06,-9.16,0.61,18.25
2680,0.18,1.08,-0.07,-12.82,2.75,20.51
2700,0.15,1.19,-0.12,-14.59,-0.06,26.37
2720,0.15,1.27,-0.17,-9.52,-0.55,37.96
2740,0.18,1.29,-0.19,-14.22,-0.06,59.02
2760,0.24,1.13,-0.14,-16.54,-3.05,71.23
2780,0.24,1.07,-0.17,-24.35,-3.97,73.79
2800,0.33,0.92,-0.05,-35.83,-6.16,73.67
2820,0.35,0.88,0.05,-37.23,-7.02,71.59
2840,0.41,0.79,0.12,-35.40,-3.97,70.86
2860,0.45,0.76,0.06,-27.10,3.36,58.65
2880,0.50,0.71,0.09,-23.19,1.77,49.62
2900,0.56,0.64,0.10,-18.25,2.14,37.96
2920,0.54,0.70,0.14,-7.20,-0.92,17.33
2940,0.55,0.74,0.16,1.28,-2.20,7.02
2960,0.57,0.76,0.17,9.89,-1.34,-2.32
2980,0.63,0.65,0.20,27.65,2.50,-26.49
3000,0.58,0.16,0.28,41.56,10.62,-53.77
3020,0.38,0.63,-0.01,43.76,15.50,-81.97
3040,0.37,0.95,-0.16,40.47,12.51,-88.81
3060,0.24,1.19,-0.24,27.89,12.63,-75.87
3080,0.44,0.79,-0.01,22.71,3.97,-64.21
3100,0.44,0.60,0.04,24.17,18.37,-81.97
3120,0.07,1.49,0.02,28.20,20.02,-96.56
3140,-0.06,1.73,-0.60,38.45,33.20,-65.19
3160,0.24,1.14,-0.15,21.00,12.33,-23.68
3180,0.25,1.01,-0.15,-4.39,-0.18,-13.55
3200,0.15,1.05,-0.08,-13.49,9.83,-12.88
3220,0.15,1.08,0.03,-9.16,-0.85,-8.30
3240,0.21,1.00,-0.06,3.54,6.84,2.20
3260,0.28,0.92,-0.13,7.51,3.91,2.44
3280,0.30,0.88,-0.20,6.90,8.85,-3.48
3300,0.27,0.99,-0.15,0.67,11.05,-16.42
3320,0.17,1.02,-0.08,2.69,4.64,-17.46
3340,0.13,1.04,-0.07,2.75,-0.55,-13.55
3360,0.17,1.02,-0.09,0.61,-4.82,-4.33
3380,0.20,0.99,-0.12,0.12,-0.79,-3.97
3400,0.20,0.99,-0.12,-2.38,-0.92,-3.66
3420,0.19,1.00,-0.11,-3.91,-0.92,-2.75
3440,0.19,1.01,-0.09,-4.88,-1.65,-2.44
3460,0.19,1.00,-0.09,-3.05,-0.18,-1.40
3480,0.20,1.00,-0.09,-0.61,1.46,-0.61
3500,0.20,0.99,-0.11,0.85,2.62,-0.61
3520,0.20,1.00,-0.10,1.22,1.34,-1.34
3540,0.20,0.99,-0.11,0.92,1.40,-0.98
3560,0.20,0.99,-0.11,0.31,1.10,-1.16
3580,0.20,0.99,-0.12,-0.31,1.71,-0.98
3600,0.19,1.00,-0.11,-1.28,1.71,-1.22
3620,0.19,1.00,-0.11,-2.14,1.83,-0.79
3640,0.18,0.99,-0.10,-2.38,1.28,-0.06
3660,0.18,1.00,-0.11,-3.30,-0.73,1.95
3680,0.16,1.00,-0.10,-5.80,-2.56,1.95
3700,0.17,1.00,-0.11,-7.93,-6.23,3.97
3720,0.16,1.02,-0.09,-11.35,-8.30,6.96
3740,0.17,1.03,-0.08,-15.14,-11.96,14.28
3760,0.16,1.09,-0.07,-16.17,-10.13,18.07
3780,0.17,1.14,-0.06,-16.05,-12.27,27.77
3800,0.13,1.26,-0.18,-10.80,-9.77,46.14
3820,0.22,1.30,-0.17,-12.08,-11.17,59.45
3840,0.22,1.19,-0.24,-16.30,-7.02,71.96
3860,0.22,1.14,-0.22,-24.96,-10.01,80.51
3880,0.21,1.15,-0.14,-38.76,-12.88,88.20
3900,0.26,1.04,-0.03,-47.30,-14.83,99.98
3920,0.34,1.02,0.02,-51.88,-8.18,108.15
3940,0.45,0.72,-0.00,-53.53,-0.24,114.38
3960,0.59,0.47,0.06,-53.16,-2.69,101.87
3980,0.65,0.40,0.11,-47.24,-2.14,81.48
4000,0.69,0.37,0.21,-28.87,-7.51,49.68
4020,0.74,0.37,0.31,-16.17,-6.96,26.92
4040,0.73,0.37,0.34,1.65,-8.06,1.95
4060,0.70,0.47,0.37,23.56,0.92,-34.97
4080,0.67,0.42,0.32,41.26,4.88,-58.53
4100,0.55,0.41,0.17,56.09,11.66,-81.30
4120,0.44,0.68,-0.18,52.86,16.05,-104.86
4140,0.32,1.26,-0.27,47.79,18.98,-112.55
4160,0.30,1.16,-0.24,40.16,11.17,-93.38
4180,0.37,0.69,0.08,30.27,2.50,-78.98
4200,0.14,0.95,0.03,32.41,13.98,-89.23
4220,0.21,1.29,-0.16,23.32,13.43,-79.83
4240,0.16,1.40,-0.19,23.68,10.07,-60.18
4260,0.38,1.13,-0.32,24.35,25.27,-52.31
4280,0.40,0.84,-0.40,12.27,33.14,-54.02
4300,-0.01,1.31,-0.21,-0.73,34.73,-48.95
4320,0.18,1.10,-0.00,-4.58,-10.62,-8.18
4340,0.23,0.99,-0.08,-8.36,-3.60,-1.83
4360,0.25,1.00,-0.02,-4.15,-7.26,-3.85
4380,0.25,0.94,-0.14,2.38,9.95,-3.85
4400,0.25,0.96,-0.13,-0.67,6.23,-8.61
4420,0.23,0.98,-0.11,-2.62,5.19,-11.11
4440,0.21,1.00,-0.08,-1.28,1.71,-13.49
4460,0.18,1.01,-0.07,0.55,0.92,-14.22
4480,0.17,1.02,-0.07,1.10,0.49,-12.33
4500,0.18,1.01,-0.08,0.67,0.55,-8.54
4520,0.18,1.00,-0.08,0.00,0.98,-5.86
4540,0.18,1.00,-0.09,-0.98,0.92,-3.85
4560,0.19,1.00,-0.09,-2.01,1.46,-1.59
4580,0.18,1.00,-0.08,-1.71,1.71,-0.49
4600,0.19,1.00,-0.08,-0.49,2.20,0.73
4620,0.19,1.00,-0.09,1.34,3.05,1.16
4640,0.19,1.00,-0.10,2.32,3.91,0.73
4660,0.19,0.99,-0.10,2.75,3.91,0.49
4680,0.19,1.00,-0.10,2.20,3.48,0.73
4700,0.19,1.00,-0.10,1.46,3.36,0.61
4720,0.18,1.00,-0.10,1.59,3.30,0.31
4740,0.18,1.00,-0.10,1.28,2.81,1.34
4760,0.18,1.00,-0.09,0.85,1.34,2.32
4780,0.19,1.00,-0.10,0.37,0.92,2.93
4800,0.18,1.01,-0.09,0.12,-0.18,3.78
4820,0.17,1.03,-0.07,-0.12,-2.26,8.61
4840,0.18,1.02,-0.10,-1.28,-3.36,12.94
4860,0.18,1.05,-0.10,-3.72,-6.47,17.33
4880,0.17,1.12,-0.09,-4.82,-9.58,27.95
4900,0.20,1.16,-0.11,-1.59,-12.33,38.15
4920,0.18,1.23,-0.18,1.59,-13.61,46.69
4940,0.26,1.15,-0.19,-4.33,-11.54,56.70
4960,0.29,1.08,-0.27,-10.13,-10.62,62.26
4980,0.28,1.06,-0.25,-20.08,-12.08,64.15
5000,0.28,1.07,-0.19,-33.39,-14.65,69.27
5020,0.32,1.00,-0.11,-41.32,-17.64,73.30
5040,0.34,0.92,-0.04,-47.49,-18.49,76.78
5060,0.39,0.91,0.02,-47.55,-13.55,80.81
5080,0.48,0.77,0.08,-45.35,-12.27,81.85
5100,0.52,0.70,0.09,-42.05,-11.23,73.30
5120,0.59,0.60,0.11,-36.07,-9.52,54.93
5140,0.63,0.54,0.15,-25.51,-6.59,40.34
5160,0.64,0.52,0.15,-16.91,-2.93,24.23
5180,0.67,0.53,0.16,-7.14,-0.98,7.20
5200,0.70,0.44,0.23,7.08,2.14,-19.84
5220,0.63,0.47,0.17,17.88,8.79,-42.11
5240,0.57,0.56,0.11,27.65,9.77,-60.00
5260,0.46,0.87,0.05,37.66,11.29,-77.82
5280,0.45,0.99,0.02,37.96,10.31,-79.90
5300,0.49,0.66,0.04,41.14,8.36,-79.59
5320,0.32,0.75,-0.18,30.58,20.26,-95.28
5340,0.24,1.16,-0.07,18.43,15.08,-95.34
5360,0.17,1.38,-0.20,13.92,18.37,-83.01
5380,0.37,1.03,0.07,20.02,14.83,-54.87
5400,0.52,0.70,0.05,24.48,31.37,-65.67
5420,0.26,1.29,-0.39,30.09,71.96,-88.56
5440,-0.26,1.65,0.08,55.60,23.44,-31.92
5460,0.19,1.00,-0.23,7.57,2.93,-0.06
5480,0.23,0.99,-0.09,-10.93,-5.80,-0.31
5500,0.25,0.99,-0.08,-7.20,-1.46,-1.59
5520,0.27,0.96,-0.14,-0.85,4.64,-4.82
5540,0.25,0.98,-0.11,0.43,6.96,-8.97
5560,0.22,0.98,-0.13,1.77,8.30,-10.01
5580,0.19,0.99,-0.12,0.92,3.54,-10.19
5600,0.19,1.01,-0.09,0.24,0.98,-8.36
5620,0.20,1.00,-0.09,1.10,0.31,-5.86
5640,0.21,1.00,-0.11,2.08,1.40,-2.99
5660,0.21,0.99,-0.12,2.14,2.87,-2.26
5680,0.20,0.99,-0.13,1.59,2.69,-1.40
5700,0.20,0.99,-0.13,-1.10,1.04,-0.61
5720,0.21,0.99,-0.13,-2.44,0.06,-0.49
5740,0.21,0.99,-0.12,-2.69,0.18,-1.10
5760,0.21,0.99,-0.11,-2.38,0.06,-1.59
5780,0.21,0.99,-0.12,-1.34,-0.37,-1.59
5800,0.21,0.99,-0.13,-0.85,-0.37,-1.71
5820,0.21,0.99,-0.13,-0.37,0.37,-1.95
5840,0.20,1.00,-0.12,-1.34,0.55,-1.77
5860,0.20,1.00,-0.11,-1.22,0.73,-0.67
5880,0.20,0.99,-0.12,-1.16,1.34,0.00
5900,0.21,0.99,-0.12,-1.40,1.10,0.31
5920,0.20,0.99,-0.12,-1.89,0.79,0.49
5940,0.18,1.00,-0.11,-2.75,-1.89,2.01
5960,0.20,0.99,-0.12,-6.29,-4.03,2.75
5980,0.19,0.99,-0.12,-8.61,-5.98,3.05
6000,0.18,1.00,-0.12,-12.82,-9.22,3.97
6020,0.19,1.03,-0.08,-17.33,-12.02,8.73
6040,0.21,1.02,-0.06,-16.17,-10.93,11.96
6060,0.19,1.07,-0.07,-12.88,-9.58,16.24
6080,0.19,1.15,-0.12,-9.22,-12.94,27.95
6100,0.26,1.17,-0.17,-6.41,-15.44,39.18
6120,0.25,1.22,-0.19,-6.47,-12.51,48.71
6140,0.24,1.15,-0.19,-15.01,-9.77,60.00
6160,0.26,1.09,-0.16,-21.55,-11.72,65.92
6180,0.29,1.03,-0.13,-27.77,-11.84,69.09
6200,0.33,0.95,-0.03,-34.73,-11.41,71.47
6220,0.37,0.87,-0.01,-36.19,-10.68,72.63
6240,0.41,0.87,0.05,-36.32,-9.22,72.51
6260,0.45,0.81,0.07,-31.49,-5.92,69.46
6280,0.54,0.65,0.09,-26.18,-4.76,60.24
6300,0.57,0.62,0.08,-22.16,-3.85,45.59
6320,0.59,0.64,0.10,-13.55,-3.72,26.49
6340,0.60,0.63,0.14,-6.29,-3.48,13.85
6360,0.61,0.64,0.14,0.73,-1.95,1.28
6380,0.65,0.52,0.18,7.26,-0.06,-23.93
6400,0.65,0.41,0.13,20.81,9.09,-48.52
6420,0.51,0.56,0.02,26.00,14.65,-71.59
6440,0.38,1.00,0.05,32.84,9.28,-84.29
6460,0.33,1.09,0.01,36.38,3.36,-67.08
6480,0.46,0.80,-0.04,33.81,4.09,-58.47
6500,0.57,0.41,-0.13,25.39,14.40,-70.25
6520,0.09,1.28,-0.09,11.90,24.90,-96.92
6540,0.05,1.50,0.01,12.21,7.45,-73.79
6560,0.32,1.10,0.06,24.66,3.60,-44.25
6580,0.60,0.76,-0.38,26.73,36.01,-58.59
6600,0.21,1.20,-0.61,11.78,65.49,-83.31
6620,-0.46,1.65,0.40,21.55,12.76,-54.87
6640,0.23,0.96,-0.19,-7.57,1.83,1.65
6660,0.22,1.00,-0.05,-10.50,-13.85,-4.52
6680,0.27,0.98,-0.06,-6.16,-4.03,-3.42
6700,0.23,0.97,-0.12,-4.09,0.98,-7.39
6720,0.23,0.98,-0.09,-3.54,0.73,-9.28
6740,0.23,0.98,-0.11,-2.14,1.83,-10.44
6760,0.22,0.99,-0.09,15.56,0.00,-13.49
6780,0.14,1.02,-0.07,2.14,0.12,-12.02
6800,0.18,1.01,-0.08,0.12,-2.50,-5.86
6820,0.20,1.00,-0.09,-0.98,-1.28,-3.30
6840,0.20,1.00,-0.09,-0.43,-0.06,-2.75
6860,0.20,1.00,-0.10,-1.04,0.79,-1.83
6880,0.20,1.00,-0.10,-2.08,1.46,-1.59
6900,0.20,1.00,-0.09,-1.83,2.38,-1.59
6920,0.17,1.01,-0.07,-0.37,2.93,-1.22
6940,0.18,1.00,-0.08,0.24,0.92,1.46
6960,0.21,0.99,-0.09,0.31,-0.12,2.62
6980,0.21,0.99,-0.10,0.31,0.55,2.14
7000,0.19,1.00,-0.09,0.43,1.34,1.71
7020,0.16,1.02,-0.07,-0.79,0.61,3.66
7040,0.18,1.02,-0.08,-2.08,-0.73,8.42
7060,0.20,1.00,-0.10,-3.36,-1.65,11.11
7080,0.18,1.09,-0.07,-5.13,-1.83,14.28
7100,0.16,1.12,-0.08,-7.20,-4.09,23.56
7120,0.13,1.21,-0.10,-6.23,-7.08,33.87
7140,0.24,1.19,-0.08,3.23,-12.94,50.05
7160,0.30,1.10,-0.18,3.36,-10.38,56.88
7180,0.22,1.18,-0.27,-5.37,-5.92,60.85
7200,0.29,1.09,-0.24,-13.43,-9.77,70.13
7220,0.29,1.05,-0.18,-28.20,-13.43,72.94
7240,0.31,0.99,-0.11,-35.64,-15.50,75.38
7260,0.36,0.92,-0.04,-42.24,-15.38,77.39
7280,0.43,0.81,0.04,-43.15,-12.70,78.25
7300,0.50,0.72,0.10,-39.25,-8.91,76.23
7320,0.55,0.63,0.12,-32.53,-6.23,63.42
7340,0.59,0.57,0.13,-23.13,-2.99,42.30
7360,0.62,0.55,0.10,-14.95,-1.04,26.43
7380,0.63,0.55,0.09,-6.59,-0.12,9.70
7400,0.65,0.57,0.14,3.66,1.34,-14.16
7420,0.62,0.57,0.12,11.66,5.68,-32.78
7440,0.60,0.59,0.17,22.09,7.45,-50.84
7460,0.48,0.69,0.04,34.24,12.45,-73.73
7480,0.43,0.68,-0.02,33.51,10.38,-80.38
7500,0.43,0.94,-0.16,26.00,15.93,-88.32
7520,0.17,1.41,0.04,24.11,3.85,-74.46
7540,0.43,0.51,0.05,25.51,15.50,-72.51
7560,0.16,0.89,0.04,28.38,24.29,-89.05
7580,0.15,1.33,-0.01,28.14,15.20,-68.48
7600,0.26,1.26,-0.59,24.23,37.41,-58.78
7620,0.47,1.04,-0.26,1.83,23.99,-46.81
7640,0.13,1.27,-0.18,-5.43,31.86,-45.35
7660,0.02,1.19,0.09,0.85,1.34,-22.58
7680,0.19,1.02,-0.06,2.93,1.28,-4.15
7700,0.23,0.98,-0.11,2.93,3.54,-2.75
7720,0.24,0.96,-0.14,2.08,5.74,-4.70
7740,0.23,0.97,-0.13,-0.06,5.43,-6.47
7760,0.20,0.99,-0.11,-0.06,4.15,-8.42
7780,0.19,1.00,-0.09,0.49,2.01,-6.53
7800,0.19,1.00,-0.09,0.73,0.67,-5.43
7820,0.19,1.00,-0.10,0.12,0.12,-4.27
7840,0.19,1.00,-0.10,-1.22,-0.67,-2.93
7860,0.19,1.00,-0.10,-1.65,-0.24,-1.65
7880,0.20,0.99,-0.10,-1.34,0.18,-0.43
7900,0.20,0.99,-0.11,0.12,1.95,0.61
7920,0.20,0.99,-0.11,0.18,2.38,0.55
7940,0.20,0.99,-0.11,0.06,1.83,0.43
7960,0.20,0.99,-0.11,0.12,1.40,-0.24
7980,0.20,0.99,-0.11,-0.24,0.73,-0.61
8000,0.20,0.99,-0.11,-0.43,0.61,-0.92
8020,0.20,0.99,-0.11,-1.22,0.73,-0.98
8040,0.20,0.99,-0.11,-2.26,0.67,-0.73
8060,0.20,0.99,-0.11,-2.87,0.31,-0.67
8080,0.20,0.99,-0.10,-3.05,-0.06,-0.49
8100,0.20,0.99,-0.10,-2.69,-0.31,-0.31
8120,0.19,1.00,-0.10,-2.26,-0.37,0.12
8140,0.20,0.99,-0.11,-2.87,-0.67,1.16
8160,0.19,1.00,-0.10,-3.60,-1.89,2.26
8180,0.17,1.01,-0.09,-4.39,-2.93,4.15
8200,0.18,1.01,-0.09,-6.59,-4.33,7.57
8220,0.19,1.02,-0.08,-9.03,-6.10,12.45
8240,0.21,1.03,-0.09,-10.01,-6.23,15.32
8260,0.17,1.08,-0.08,-9.09,-6.04,19.17
8280,0.20,1.17,-0.12,-8.97,-11.72,32.90
8300,0.27,1.12,-0.16,-4.94,-14.28,40.95
8320,0.27,1.19,-0.20,-5.31,-10.99,44.31
8340,0.27,1.16,-0.22,-14.10,-6.53,52.61
8360,0.28,1.08,-0.18,-20.14,-9.46,59.27
8380,0.29,1.05,-0.16,-26.73,-8.61,61.77
8400,0.31,0.99,-0.08,-34.48,-8.91,64.45
8420,0.35,0.92,-0.02,-37.48,-8.91,66.10
8440,0.38,0.85,0.04,-38.39,-9.95,67.75
8460,0.44,0.77,0.06,-36.38,-4.52,63.48
8480,0.53,0.66,0.08,-29.66,-2.50,55.66
8500,0.57,0.62,0.10,-24.72,-2.01,42.42
8520,0.58,0.61,0.11,-18.19,-1.28,27.34
8540,0.59,0.60,0.13,-8.61,-0.67,3.91
8560,0.66,0.50,0.15,-2.08,0.06,-13.00
8580,0.65,0.42,0.14,6.90,6.23,-36.44
8600,0.48,0.68,0.16,23.62,8.79,-73.73
8620,0.34,0.94,0.14,34.85,6.04,-82.40
8640,0.37,1.00,0.03,37.96,1.40,-75.32
8660,0.38,0.82,-0.07,36.62,7.93,-68.05
8680,0.45,0.57,-0.03,29.36,16.05,-77.27
8700,0.12,1.14,0.06,27.28,24.72,-96.13
8720,0.38,1.30,-0.19,35.10,14.28,-60.97
8740,0.19,1.28,-0.62,34.24,33.57,-54.44
8760,0.29,1.20,-0.29,9.70,9.52,-46.69
8780,0.15,1.20,-0.07,-6.47,7.20,-39.06
8800,0.11,1.08,-0.01,-16.42,-6.10,-27.34
8820,0.19,1.03,-0.00,-15.87,-11.78,-20.32
8840,0.22,1.00,-0.02,-5.00,-2.56,-18.19
8860,0.18,1.00,-0.06,0.98,1.53,-17.27
8880,0.16,1.01,-0.04,0.67,1.04,-13.06
8900,0.17,1.01,-0.04,1.59,-0.06,-6.23
8920,0.17,1.00,-0.06,2.26,-0.24,-3.78
8940,0.17,1.00,-0.08,1.95,0.00,-3.30
8960,0.18,1.00,-0.08,-0.49,-0.12,-2.87
8980,0.18,1.00,-0.07,-1.77,0.67,-3.11
9000,0.18,1.00,-0.07,-1.77,0.73,-2.99
9020,0.17,1.00,-0.07,-1.10,0.79,-2.75
9040,0.17,1.00,-0.07,-0.98,-0.12,-1.53
9060,0.18,1.00,-0.07,-1.34,-0.73,-0.79
9080,0.18,1.00,-0.08,-1.46,-0.55,-0.67
9100,0.18,1.00,-0.08,-1.46,-0.31,-0.98
9120,0.18,1.00,-0.07,-1.04,-0.49,-0.85
9140,0.18,1.00,-0.07,-0.55,-0.24,-0.79
9160,0.18,1.00,-0.07,-0.43,0.73,-0.73
9180,0.18,1.00,-0.07,0.18,1.16,-0.18
9200,0.18,1.00,-0.07,0.43,1.34,0.79
9220,0.14,1.01,-0.06,-0.31,-0.43,2.87
9240,0.16,1.02,-0.06,-2.44,-3.36,7.26
9260,0.20,1.00,-0.07,-3.05,-3.97,9.83
9280,0.17,1.02,-0.06,-2.69,-3.42,12.08
9300,0.14,1.08,-0.06,-4.64,-4.03,16.66
9320,0.17,1.08,-0.06,-5.55,-5.86,24.90
9340,0.13,1.22,-0.09,-7.75,-6.59,34.24
9360,0.17,1.23,-0.16,-2.38,-5.31,49.19
9380,0.28,1.15,-0.11,-4.70,-6.04,59.02
9400,0.28,1.10,-0.26,-10.13,-0.98,65.92
9420,0.26,1.04,-0.22,-24.23,-2.14,67.69
9440,0.30,1.00,-0.15,-33.51,-4.39,70.01
9460,0.32,0.94,-0.07,-41.26,-3.91,70.62
9480,0.37,0.87,0.10,-43.21,-4.03,71.96
9500,0.41,0.85,0.11,-38.70,-1.22,70.80
9520,0.44,0.79,0.13,-32.23,-2.08,67.38
9540,0.51,0.72,0.09,-22.77,-1.53,54.87
9560,0.55,0.67,0.09,-17.15,-2.56,45.35
9580,0.58,0.66,0.07,-12.63,-1.77,33.75
9600,0.60,0.64,0.07,-6.35,-0.18,15.69
9620,0.62,0.63,0.09,-2.87,0.37,2.20
9640,0.64,0.56,0.14,2.44,2.32,-13.67
9660,0.66,0.48,0.21,17.70,7.02,-46.08
9680,0.51,0.60,0.15,31.01,13.06,-70.43
9700,0.35,0.99,0.11,41.75,10.01,-80.14
9720,0.40,0.90,-0.03,42.91,4.70,-70.92
9740,0.45,0.82,-0.17,33.45,11.23,-74.71
9760,0.45,0.47,-0.10,20.69,17.82,-87.16
9780,0.26,0.89,-0.06,14.77,29.30,-108.64
9800,0.01,1.70,0.10,19.96,3.17,-80.38
9820,0.26,1.40,-0.31,41.69,25.27,-45.29
9840,0.41,0.94,-0.42,33.87,26.12,-38.39
9860,-0.01,1.26,-0.15,13.18,32.35,-47.12
9880,0.02,1.18,0.07,2.62,7.32,-24.29
9900,0.17,1.05,-0.03,0.98,3.48,-4.58
9920,0.25,0.97,-0.09,3.97,4.76,-1.28
9940,0.24,0.96,-0.14,8.30,9.95,-3.42
9960,0.23,0.96,-0.16,6.71,10.93,-6.41
9980,0.18,1.00,-0.12,2.93,5.80,-8.36
10000,0.18,1.00,-0.11,0.00,1.59,-5.86
10020,0.19,1.00,-0.09,-1.22,-1.53,-3.85
10040,0.20,1.00,-0.10,0.85,-0.73,-1.28
10060,0.20,1.00,-0.10,1.46,1.89,-0.67
10080,0.21,0.98,-0.13,2.08,2.87,-0.12
10100,0.20,0.99,-0.12,0.92,2.81,-0.18
10120,0.21,0.99,-0.12,-0.37,1.95,-0.06
10140,0.21,0.99,-0.12,-0.92,1.46,-0.18
10160,0.21,0.99,-0.12,-0.98,1.22,-1.22
10180,0.21,0.99,-0.12,-0.31,0.98,-1.46
10200,0.20,0.99,-0.12,0.18,0.98,-1.71
10220,0.21,0.99,-0.13,0.18,0.55,-1.65
10240,0.20,0.99,-0.12,-1.04,0.12,-1.53
10260,0.21,0.99,-0.13,-1.83,0.12,-1.40
10280,0.20,0.99,-0.12,-2.38,0.06,-1.71
10300,0.20,0.99,-0.12,-2.81,-0.24,-1.77
10320,0.21,0.99,-0.12,-2.69,-0.37,-1.83
10340,0.20,0.99,-0.11,-2.62,0.00,-1.89
10360,0.20,1.00,-0.11,-2.69,0.18,-2.01
10380,0.20,0.99,-0.12,-2.44,0.37,-1.59
10400,0.20,0.99,-0.12,-2.56,0.43,-1.34
10420,0.20,0.99,-0.11,-3.85,0.31,-1.46
10440,0.16,1.00,-0.10,-4.76,-1.28,0.49
10460,0.19,0.98,-0.12,-7.69,-3.91,2.99
10480,0.17,1.00,-0.11,-15.08,-11.47,6.10
10500,0.16,1.02,-0.11,-21.67,-14.71,10.62
10520,0.18,1.05,-0.08,-28.75,-18.25,16.42
10540,0.23,1.05,-0.08,-28.63,-12.57,19.84
10560,0.21,1.13,-0.13,-20.14,-9.77,23.93
10580,0.20,1.16,-0.10,-16.11,-12.08,32.90
10600,0.25,1.21,-0.12,-13.92,-13.31,59.63
10620,0.23,1.14,-0.17,-17.58,-6.35,56.21
10640,0.28,1.06,-0.13,-24.54,-7.81,60.85
10660,0.29,1.00,-0.10,-31.01,-5.37,61.71
10680,0.31,0.96,-0.01,-37.66,-6.41,63.11
10700,0.37,0.89,0.06,-38.51,-6.29,65.00
10720,0.42,0.80,0.09,-36.62,-3.17,63.11
10740,0.48,0.71,0.08,-32.17,0.24,54.02
10760,0.54,0.62,0.11,-28.38,-0.31,41.38
10780,0.57,0.57,0.12,-22.58,-0.92,24.41
10800,0.62,0.50,0.14,-15.32,-2.69,-2.81
10820,0.61,0.50,0.14,-8.97,-0.49,-26.67
10840,0.61,0.43,0.21,0.06,-0.43,-52.12
10860,0.46,0.68,0.29,21.79,-3.85,-86.61
10880,0.26,1.04,0.19,38.15,-2.75,-86.00
10900,0.37,0.85,0.13,42.79,-9.58,-72.27
10920,0.36,0.93,-0.10,42.79,13.06,-81.60
10940,0.50,0.47,0.07,40.53,17.09,-90.09
10960,0.50,1.61,-0.00,50.90,39.25,-121.64
10980,-1.25,1.79,-0.75,121.58,25.70,-51.15
11000,-0.02,0.93,-0.51,54.38,22.22,3.30
11020,0.25,0.93,-0.24,-1.04,6.65,11.47
11040,0.20,1.04,-0.01,-7.57,3.60,2.62
11060,0.23,0.96,-0.13,2.14,10.07,1.40
11080,0.22,0.99,-0.10,3.72,1.65,-5.80
11100,0.22,0.98,-0.14,5.43,1.28,-8.30
11120,0.20,0.97,-0.17,1.83,-2.38,-13.49
11140,0.17,0.99,-0.13,-1.53,-3.36,-13.61
11160,0.17,1.00,-0.10,-3.97,-3.05,-10.07
11180,0.18,1.01,-0.09,-1.65,-2.50,-6.47
11200,0.19,1.00,-0.10,0.67,-2.38,-5.49
11220,0.18,1.00,-0.12,2.08,-0.43,-4.52
11240,0.18,0.99,-0.13,0.61,0.98,-4.33
11260,0.17,1.00,-0.12,-0.73,1.53,-3.54
11280,0.17,1.00,-0.12,-1.83,1.34,-1.77
11300,0.18,1.00,-0.12,-2.32,0.55,-1.46
11320,0.17,1.00,-0.11,-1.77,0.18,-1.53
11340,0.17,1.00,-0.11,-0.73,0.12,-0.73
11360,0.17,1.00,-0.11,0.31,1.16,0.92
11380,0.17,1.00,-0.11,0.85,1.53,2.08
11400,0.18,1.00,-0.12,1.34,3.05,3.48
11420,0.18,1.00,-0.12,1.22,4.09,4.70
11440,0.20,0.99,-0.14,0.79,4.64,3.85
11460,0.18,1.00,-0.12,-0.43,4.09,2.87
11480,0.17,1.00,-0.11,-0.98,4.64,3.97
11500,0.16,1.00,-0.10,-1.89,4.46,8.48
11520,0.17,0.99,-0.13,-3.05,2.50,10.74
11540,0.16,0.99,-0.13,-6.90,-1.83,11.60
11560,0.16,1.04,-0.11,-18.74,-12.51,18.19
11580,0.17,1.04,-0.11,-24.96,-16.91,21.42
11600,0.17,1.09,-0.08,-25.45,-19.04,23.13
11620,0.14,1.22,-0.13,-15.01,-21.24,33.33
11640,0.25,1.22,-0.19,-8.73,-21.73,44.56
11660,0.33,1.16,-0.17,-9.89,-16.97,54.93
11680,0.25,1.13,-0.23,-20.94,-13.00,65.12
11700,0.28,1.05,-0.19,-31.07,-12.63,68.91
11720,0.28,1.03,-0.11,-39.67,-10.99,70.98
11740,0.32,0.93,-0.04,-46.81,-12.57,75.99
11760,0.41,0.81,0.06,-48.16,-8.00,74.22
11780,0.48,0.74,0.09,-44.01,-3.60,68.97
11800,0.52,0.65,0.12,-38.45,-0.31,51.88
11820,0.56,0.60,0.15,-28.20,0.55,36.93
11840,0.58,0.59,0.17,-19.17,-0.06,22.28
11860,0.60,0.62,0.19,-9.03,-1.16,6.71
11880,0.63,0.57,0.23,7.93,-0.79,-14.71
11900,0.61,0.50,0.21,21.73,3.60,-35.77
11920,0.56,0.49,0.20,35.28,6.10,-58.17
11940,0.40,0.87,0.03,44.86,9.40,-83.13
11960,0.31,1.12,-0.04,45.90,6.59,-80.02
11980,0.34,1.04,-0.11,42.72,7.63,-64.64
12000,0.51,0.53,-0.04,33.51,10.44,-70.86
12020,0.28,0.67,-0.06,30.64,27.89,-95.34
12040,0.11,1.48,-0.04,27.28,21.61,-100.95
12060,-0.01,1.57,-0.59,30.52,35.71,-59.81
12080,0.16,1.21,-0.19,15.44,4.33,-34.00
12100,0.26,1.01,-0.19,-2.62,10.50,-23.25
12120,0.13,1.05,0.09,-10.07,5.25,-20.20
12140,0.14,1.08,0.05,2.14,5.43,-6.23
12160,0.22,0.99,-0.08,9.83,10.44,2.32
12180,0.26,0.95,-0.14,9.95,10.25,-0.24
12200,0.25,0.94,-0.18,3.60,10.80,-5.25
12220,0.22,0.98,-0.12,-1.34,6.10,-9.64
12240,0.16,1.03,-0.06,-1.22,-13.85,-7.14
12260,0.20,1.01,-0.07,0.61,-1.89,-3.85
12280,0.20,1.00,-0.09,2.26,-0.37,-3.36
12300,0.21,0.99,-0.11,3.23,0.92,-2.99
12320,0.20,0.98,-0.13,1.46,2.32,-3.36
12340,0.20,0.99,-0.13,-1.40,0.92,-3.78
12360,0.20,0.99,-0.12,-3.78,-0.43,-3.85
12380,0.19,1.00,-0.10,-4.64,-1.71,-3.78
12400,0.19,1.00,-0.09,-3.97,-2.08,-3.30
12420,0.19,1.00,-0.09,-2.81,-2.50,-2.69
12440,0.19,1.00,-0.10,-1.71,-2.75,-0.43
12460,0.20,0.99,-0.10,-1.89,-2.50,0.37
12480,0.18,1.00,-0.09,-2.08,-2.08,1.28
12500,0.18,1.00,-0.10,-3.30,-2.62,4.27
12520,0.18,1.01,-0.09,-4.94,-3.85,6.77
12540,0.20,1.01,-0.09,-7.57,-5.62,10.31
12560,0.19,1.02,-0.07,-9.34,-5.31,15.26
12580,0.20,1.03,-0.09,-8.97,-2.01,17.09
12600,0.23,1.02,-0.08,-7.02,-1.53,19.90
12620,0.20,1.06,-0.07,-3.11,-0.24,25.02
12640,0.18,1.09,-0.10,0.18,-2.69,29.97
12660,0.25,1.09,-0.13,0.61,-6.10,35.40
12680,0.30,1.06,-0.11,1.22,-8.30,38.39
12700,0.33,1.00,-0.13,-2.01,-5.43,39.00
12720,0.30,1.03,-0.16,-6.84,-3.42,38.82
12740,0.31,1.02,-0.14,-11.60,-3.91,39.43
12760,0.32,1.00,-0.10,-16.72,-5.62,41.26
12780,0.33,0.98,-0.08,-18.55,-7.45,42.36
12800,0.34,0.98,-0.07,-20.26,-8.42,42.97
12820,0.37,0.95,-0.04,-21.73,-9.28,43.95
12840,0.41,0.89,-0.02,-23.50,-9.83,43.70
12860,0.45,0.83,-0.03,-25.88,-7.69,41.93
12880,0.48,0.78,-0.00,-26.98,-5.74,34.18
12900,0.52,0.70,0.03,-26.67,-4.03,26.86
12920,0.53,0.66,0.03,-24.48,-1.53,15.81
12940,0.54,0.59,0.11,-21.06,-1.10,-2.62
12960,0.59,0.54,0.06,-18.92,-0.37,-20.57
12980,0.66,0.40,-0.01,-20.45,2.20,-43.95
13000,0.51,0.61,0.03,-6.90,2.20,-84.23
13020,0.32,0.83,0.34,6.90,2.62,-98.75
13040,0.21,1.01,0.37,28.26,3.36,-97.35
13060,0.14,1.26,0.14,42.42,5.86,-70.92
13080,0.35,0.96,-0.06,53.53,17.46,-56.88
13100,0.65,0.88,-0.21,50.72,37.90,-67.14
13120,0.17,1.79,-0.81,61.52,82.40,-97.29
13140,-0.19,1.21,-0.02,58.29,8.48,-38.09
13160,0.18,1.00,-0.14,2.26,1.34,1.83
13180,0.22,0.99,-0.10,-6.16,1.22,2.01
13200,0.24,0.96,-0.12,-0.37,7.20,-1.22
13220,0.23,0.98,-0.11,0.37,3.54,-7.39
13240,0.20,0.98,-0.13,1.65,-0.06,-11.66
13260,0.19,0.98,-0.14,-0.85,-5.92,-14.16
13280,0.17,1.00,-0.11,-1.95,-7.14,-13.31
13300,0.17,1.00,-0.10,-2.44,-3.54,-9.34
13320,0.18,1.01,-0.09,-0.73,-1.34,-6.71
13340,0.18,1.01,-0.09,1.10,-0.18,-4.82
13360,0.18,0.99,-0.12,1.95,0.37,-3.11
13380,0.18,0.99,-0.12,1.22,1.10,-2.69
13400,0.17,0.99,-0.12,-0.49,1.16,-2.62
13420,0.18,0.99,-0.12,-1.65,1.28,-1.95
13440,0.18,1.00,-0.11,-2.01,1.16,-1.83
13460,0.17,1.00,-0.10,-0.92,0.79,-0.85
13480,0.17,1.00,-0.10,0.49,0.49,0.18
13500,0.18,1.00,-0.11,1.53,1.59,2.01
13520,0.18,1.00,-0.12,2.20,3.85,2.99
13540,0.17,1.00,-0.12,2.08,5.49,4.58
13560,0.18,0.99,-0.13,1.46,5.98,5.74
13580,0.19,0.99,-0.12,0.12,6.35,6.59
13600,0.18,0.99,-0.12,-1.28,5.74,6.35
13620,0.18,0.99,-0.12,-2.26,3.72,6.59
13640,0.18,1.00,-0.11,-3.48,-0.31,8.24
13660,0.16,1.01,-0.10,-3.85,-2.20,9.64
13680,0.17,1.01,-0.11,-6.10,-6.29,12.70
13700,0.18,1.02,-0.13,-13.24,-13.55,17.09
13720,0.21,1.07,-0.12,-18.13,-16.42,19.65
13740,0.19,1.08,-0.09,-14.04,-15.63,24.11
13760,0.20,1.15,-0.08,-7.51,-17.58,37.41
13780,0.26,1.11,-0.16,-2.44,-16.05,45.84
13800,0.28,1.12,-0.17,-4.82,-13.73,52.37
13820,0.26,1.16,-0.27,-14.10,-9.34,61.40
13840,0.28,1.10,-0.22,-23.74,-10.19,63.42
13860,0.28,1.04,-0.17,-31.25,-11.35,68.12
13880,0.31,0.97,-0.13,-42.48,-12.63,72.51
13900,0.36,0.90,-0.03,-48.65,-10.31,73.43
13920,0.43,0.83,0.00,-50.78,-7.75,73.06
13940,0.49,0.71,0.04,-51.82,-3.05,65.31
13960,0.57,0.59,0.06,-47.18,1.10,50.60
13980,0.59,0.57,0.12,-41.20,0.92,34.91
14000,0.63,0.53,0.20,-34.00,-2.56,20.81
14020,0.65,0.50,0.23,-20.20,-4.03,-6.59
14040,0.63,0.53,0.21,-7.57,-1.59,-28.63
14060,0.61,0.53,0.27,5.31,-2.08,-50.66
14080,0.47,0.74,0.27,31.62,-3.97,-77.27
14100,0.40,0.79,0.08,43.46,-1.59,-84.35
14120,0.53,0.56,-0.07,38.15,-3.91,-88.01
14140,0.23,1.21,-0.22,31.92,14.16,-102.91
14160,0.46,0.48,0.19,20.75,2.69,-79.59
14180,0.19,0.98,-0.01,25.27,23.19,-108.46
14200,-0.12,2.05,0.09,36.07,9.03,-79.35
14220,0.12,1.31,-0.14,62.56,33.94,-25.02
14240,0.36,0.92,-0.45,64.39,32.65,-13.79
14260,0.23,1.02,-0.24,29.11,21.48,-24.23
14280,0.08,1.08,-0.03,14.53,14.10,-13.24
14300,0.17,1.02,-0.06,8.36,5.55,-3.36
14320,0.23,0.97,-0.12,6.77,5.25,-2.08
14340,0.23,0.97,-0.13,7.51,5.55,-4.76
14360,0.21,0.97,-0.14,6.10,5.92,-6.71
14380,0.19,0.99,-0.13,4.33,2.93,-7.51
14400,0.18,1.00,-0.08,1.95,-0.73,-5.13
14420,0.19,1.00,-0.10,2.81,-0.92,-2.44
14440,0.19,1.00,-0.09,3.36,-0.06,-0.85
14460,0.20,0.99,-0.13,3.11,2.20,0.43
14480,0.20,0.99,-0.12,2.08,2.01,0.55
14500,0.20,0.99,-0.12,1.89,2.62,0.73
14520,0.21,0.99,-0.13,1.16,1.71,0.73
14540,0.21,0.98,-0.14,0.12,1.53,0.31
14560,0.20,0.99,-0.12,-1.16,1.10,-0.43
14580,0.20,1.00,-0.12,-1.65,1.04,-0.67
14600,0.20,0.99,-0.12,-1.28,0.85,-0.79
14620,0.21,0.99,-0.13,-0.55,1.22,-0.92
14640,0.20,0.99,-0.13,-1.77,0.92,-0.67
14660,0.20,0.99,-0.13,-2.50,0.49,-0.49
14680,0.20,0.99,-0.13,-3.30,0.18,-0.37
14700,0.20,0.99,-0.12,-4.03,-0.92,-0.61
14720,0.19,1.00,-0.11,-3.42,-1.77,-0.31
14740,0.19,1.00,-0.12,-3.17,-2.75,1.22
14760,0.20,1.00,-0.12,-4.46,-3.97,1.83
14780,0.18,1.01,-0.09,-4.58,-5.68,3.66
14800,0.20,1.00,-0.11,-4.70,-7.08,6.77
14820,0.21,1.00,-0.11,-7.26,-9.16,8.73
14840,0.19,1.04,-0.11,-10.38,-9.40,11.72
14860,0.19,1.07,-0.10,-10.31,-10.86,16.72
14880,0.17,1.12,-0.07,-8.42,-12.57,23.25
14900,0.22,1.13,-0.13,0.79,-13.85,36.13
14920,0.24,1.14,-0.14,1.65,-12.39,41.08
14940,0.31,1.06,-0.13,-1.16,-8.97,45.29
14960,0.31,1.00,-0.19,-7.75,-7.87,51.39
14980,0.29,1.02,-0.21,-15.93,-6.65,49.80
15000,0.32,0.99,-0.19,-22.77,-9.77,51.82
15020,0.32,0.98,-0.11,-32.90,-14.10,53.83
15040,0.34,0.96,-0.06,-38.33,-12.57,55.66
15060,0.35,0.94,-0.03,-40.16,-12.57,57.86
15080,0.42,0.86,0.03,-38.02,-12.21,59.08
15100,0.49,0.74,0.08,-34.55,-8.97,56.03
15120,0.54,0.68,0.10,-28.81,-5.86,45.59
15140,0.57,0.65,0.10,-22.40,-2.81,26.18
15160,0.59,0.60,0.12,-12.94,-0.98,11.90
15180,0.64,0.55,0.12,-7.02,0.00,-3.72
15200,0.63,0.48,0.14,2.50,4.58,-34.42
15220,0.55,0.56,0.15,19.23,8.30,-57.31
15240,0.46,0.66,0.12,30.21,7.69,-74.22
15260,0.39,0.83,0.08,34.67,4.94,-85.57
15280,0.20,1.23,-0.05,36.99,7.93,-84.29
15300,0.35,0.94,0.07,39.00,3.97,-65.12
15320,0.32,0.83,-0.06,41.14,17.58,-69.27
15340,0.32,1.00,-0.11,35.52,18.80,-72.27
15360,0.39,1.19,-0.61,28.02,49.44,-77.21
15380,0.19,1.52,-0.28,15.63,45.23,-71.66
15400,0.08,1.17,-0.06,14.71,9.16,-23.99
15420,0.17,1.02,-0.10,-1.71,12.02,-8.18
15440,0.19,1.03,-0.03,-1.40,3.97,-5.92
15460,0.21,0.97,-0.10,5.92,10.80,-2.08
15480,0.22,0.97,-0.15,7.57,8.06,-3.30
15500,0.21,0.97,-0.17,4.82,6.77,-5.07
15520,0.20,0.97,-0.16,-1.89,1.16,-5.92
15540,0.19,1.00,-0.11,-4.21,-0.73,-5.68
15560,0.19,1.00,-0.10,-3.54,-1.65,-4.39
15580,0.20,1.00,-0.10,-2.44,-1.40,-2.69
15600,0.21,0.99,-0.12,-1.04,0.00,-2.44
15620,0.20,0.99,-0.12,-0.73,0.85,-1.89
15640,0.20,0.99,-0.13,-1.53,0.92,-1.10
15660,0.20,0.99,-0.12,-2.99,0.31,-1.34
15680,0.20,0.99,-0.12,-3.66,0.06,-1.34
15700,0.20,0.99,-0.12,-3.42,-0.43,-1.34
15720,0.20,0.99,-0.12,-2.50,-0.73,-1.77
15740,0.21,0.99,-0.11,-1.65,-0.61,-1.95
15760,0.19,1.00,-0.11,-0.98,0.12,-2.08
15780,0.18,1.00,-0.11,-0.73,-0.31,-0.18
15800,0.20,0.99,-0.12,-1.53,-1.16,1.71
15820,0.19,0.99,-0.12,-2.38,-1.89,2.08
15840,0.20,1.00,-0.11,-3.78,-2.50,2.50
15860,0.20,1.00,-0.10,-4.15,-2.44,2.87
15880,0.19,1.00,-0.10,-3.60,-2.81,4.21
15900,0.18,1.01,-0.06,-4.15,-4.88,9.03
15920,0.22,1.00,-0.10,-5.00,-6.65,12.70
15940,0.21,1.02,-0.13,-5.68,-4.39,13.24
15960,0.20,1.04,-0.11,-6.10,-5.49,17.40
15980,0.20,1.09,-0.11,-6.71,-8.30,23.50
16000,0.23,1.07,-0.11,-3.23,-11.05,29.11
16020,0.24,1.12,-0.14,-0.79,-11.35,36.99
16040,0.25,1.12,-0.13,0.73,-12.08,44.25
16060,0.30,1.05,-0.18,-5.31,-8.91,48.03
16080,0.34,0.95,-0.20,-10.38,-8.12,47.67
16100,0.33,0.98,-0.14,-19.71,-9.34,44.98
16120,0.32,1.01,-0.08,-23.86,-10.50,45.29
16140,0.33,1.00,-0.07,-25.39,-12.08,48.34
16160,0.37,0.98,-0.03,-27.40,-13.12,52.92
16180,0.37,0.95,-0.07,-31.13,-8.97,55.48
16200,0.44,0.84,-0.05,-33.45,-9.46,56.64
16220,0.48,0.79,0.01,-34.42,-8.12,52.92
16240,0.54,0.68,0.04,-32.47,-5.92,45.84
16260,0.57,0.64,0.07,-28.38,-4.27,33.75
16280,0.62,0.55,0.13,-19.23,-1.83,13.67
16300,0.66,0.53,0.11,-14.10,0.18,-4.64
16320,0.66,0.38,0.13,-5.00,2.87,-27.22
16340,0.61,0.40,0.16,10.19,4.21,-68.79
16360,0.39,0.85,0.17,20.57,0.61,-87.52
16380,0.35,0.98,0.09,27.53,-1.65,-86.98
16400,0.45,0.75,-0.03,27.22,4.64,-84.11
16420,0.30,0.94,-0.03,26.31,10.86,-90.88
16440,0.35,0.73,0.13,29.91,13.67,-93.93
16460,0.01,1.44,0.10,41.32,22.34,-86.67
16480,0.13,1.43,-0.50,71.59,47.36,-48.28
16500,0.33,1.15,-0.31,49.93,32.17,-22.40
16520,0.17,1.10,-0.22,22.71,14.65,-23.25
16540,0.16,1.04,-0.06,-6.47,14.59,-14.59
16560,0.20,1.03,-0.02,-2.32,3.66,-12.21
16580,0.21,1.00,-0.08,3.91,8.12,-9.77
16600,0.21,0.98,-0.14,6.41,7.32,-10.50
16620,0.19,0.98,-0.16,3.42,5.13,-10.25
16640,0.19,0.99,-0.13,-1.10,0.67,-9.89
16660,0.19,1.00,-0.10,-3.48,-2.69,-7.02
16680,0.19,1.00,-0.09,-2.56,-3.05,-5.43
16700,0.19,1.00,-0.09,-1.22,-2.62,-4.46
16720,0.19,1.00,-0.11,0.43,0.06,-3.42
16740,0.19,1.00,-0.11,0.37,0.67,-3.36
16760,0.19,0.99,-0.12,0.55,1.65,-2.50
16780,0.19,0.99,-0.12,-1.46,1.16,-1.89
16800,0.19,0.99,-0.12,-2.32,0.98,-1.59
16820,0.19,1.00,-0.11,-2.44,0.85,-1.65
16840,0.19,1.00,-0.11,-0.85,1.65,-1.34
16860,0.19,1.00,-0.11,0.98,1.89,-1.22
16880,0.19,1.00,-0.11,0.98,1.77,-0.37
16900,0.19,0.99,-0.12,0.31,2.08,0.18
16920,0.19,0.99,-0.12,-1.65,1.59,0.31
16940,0.20,0.99,-0.13,-2.93,1.22,0.49
16960,0.19,1.00,-0.11,-3.85,0.92,0.18
16980,0.19,1.00,-0.11,-3.36,0.49,0.37
17000,0.19,1.00,-0.10,-2.56,0.55,0.98
17020,0.19,1.00,-0.10,-1.34,0.37,1.53
17040,0.16,1.01,-0.09,-0.24,-0.43,2.75
17060,0.19,1.00,-0.11,-0.12,-2.08,5.68
17080,0.18,1.01,-0.10,-0.67,-2.38,6.77
17100,0.17,1.01,-0.11,-1.89,-5.19,10.99
17120,0.15,1.07,-0.12,-5.98,-9.46,15.14
17140,0.22,1.03,-0.12,-6.71,-12.88,20.69
17160,0.19,1.07,-0.10,-7.69,-12.39,25.76
17180,0.21,1.11,-0.10,-5.13,-14.59,32.59
17200,0.25,1.09,-0.13,-1.46,-13.00,37.11
17220,0.26,1.02,-0.14,-4.15,-9.34,40.04
17240,0.30,1.03,-0.22,-10.13,-5.31,40.04
17260,0.29,1.07,-0.21,-15.08,-6.65,41.38
17280,0.30,1.05,-0.17,-20.75,-9.89,45.90
17300,0.29,1.08,-0.09,-26.67,-12.57,48.71
17320,0.30,1.05,-0.06,-28.99,-13.18,54.44
17340,0.33,1.01,-0.07,-32.17,-12.27,58.90
17360,0.37,0.92,-0.04,-38.33,-9.34,62.81
17380,0.43,0.89,-0.01,-39.55,-7.45,64.27
17400,0.47,0.79,0.01,-38.82,-4.39,63.66
17420,0.54,0.69,0.06,-35.52,-2.93,52.19
17440,0.56,0.66,0.09,-31.07,-1.77,41.02
17460,0.58,0.61,0.12,-25.70,-1.10,29.66
17480,0.60,0.63,0.13,-16.42,0.98,6.77
17500,0.60,0.64,0.21,-7.20,0.24,-5.49
17520,0.57,0.63,0.21,3.23,2.75,-19.59
17540,0.53,0.69,0.20,21.30,2.01,-38.70
17560,0.51,0.77,0.10,30.03,2.56,-47.42
17580,0.56,0.69,-0.04,31.19,4.09,-55.85
17600,0.47,0.78,-0.10,31.68,8.36,-74.04
17620,0.37,0.84,0.07,34.73,7.57,-77.64
17640,0.22,1.03,0.13,39.37,4.09,-74.16
17660,0.31,0.89,0.03,40.77,4.46,-55.66
17680,0.40,0.87,-0.29,25.63,23.25,-70.98
17700,0.31,1.11,-0.23,15.69,25.94,-81.18
17720,0.53,1.05,-0.14,7.63,32.29,-103.15
17740,-0.22,1.66,-0.12,20.94,53.04,-80.63
17760,0.03,1.26,0.01,25.21,3.05,-21.48
17780,0.23,0.99,-0.16,-2.56,6.23,-3.72
17800,0.24,1.00,-0.03,-5.19,-1.16,-6.65
17820,0.25,0.97,-0.10,0.37,9.40,-5.74
17840,0.23,0.98,-0.11,3.17,10.93,-9.58
17860,0.19,1.00,-0.12,4.09,10.38,-9.89
17880,0.18,1.00,-0.10,2.81,5.62,-7.93
17900,0.18,1.00,-0.09,2.32,2.69,-6.10
17920,0.19,1.00,-0.09,3.11,1.04,-3.85
17940,0.19,1.00,-0.09,3.85,1.53,-2.50
17960,0.19,1.00,-0.11,4.46,2.14,-1.77
17980,0.19,1.00,-0.12,3.54,1.34,-0.43
18000,0.20,0.99,-0.13,1.83,1.10,-0.49
18020,0.20,0.99,-0.12,-0.12,0.49,-0.79
18040,0.20,0.99,-0.13,-1.83,0.61,-0.92
18060,0.20,1.00,-0.11,-2.62,0.49,-1.40
18080,0.20,0.99,-0.11,-2.44,0.37,-1.40
18100,0.20,1.00,-0.10,-1.28,-0.06,-1.59
18120,0.19,0.99,-0.12,-0.43,0.67,-1.40
18140,0.19,0.99,-0.12,-1.28,0.37,-1.16
18160,0.19,1.00,-0.11,-1.89,0.49,-0.67
18180,0.19,0.99,-0.11,-2.87,0.24,-0.31
18200,0.19,1.00,-0.11,-3.48,0.67,-0.18
18220,0.20,1.00,-0.11,-2.93,0.79,-0.12
18240,0.20,0.99,-0.11,-1.89,1.04,-0.24
18260,0.20,0.99,-0.11,-1.95,0.73,0.06
18280,0.20,0.99,-0.11,-2.01,0.73,0.18
18300,0.19,1.00,-0.10,-1.46,0.73,0.85
18320,0.19,1.00,-0.10,-0.73,0.73,1.89
18340,0.17,1.00,-0.09,-0.18,0.00,2.26
18360,0.17,1.01,-0.10,-1.22,-2.62,6.53
18380,0.18,1.01,-0.10,-2.87,-4.58,9.22
18400,0.15,1.04,-0.09,-5.55,-8.79,12.82
18420,0.20,1.06,-0.12,-8.97,-11.60,19.23
18440,0.19,1.09,-0.10,-9.28,-14.34,24.35
18460,0.17,1.16,-0.11,-7.93,-15.50,32.04
18480,0.23,1.11,-0.15,-1.65,-14.83,41.44
18500,0.28,1.11,-0.19,-3.17,-14.47,48.10
18520,0.27,1.14,-0.24,-11.35,-9.70,52.43
18540,0.29,1.08,-0.18,-17.58,-11.17,59.20
18560,0.31,1.00,-0.12,-26.55,-10.93,63.72
18580,0.29,1.03,-0.07,-30.09,-10.86,65.06
18600,0.34,0.96,0.00,-32.29,-13.31,68.66
18620,0.40,0.87,0.00,-34.79,-10.80,69.82
18640,0.44,0.83,0.00,-34.55,-9.22,68.24
18660,0.49,0.75,0.01,-34.30,-8.00,63.42
18680,0.55,0.66,0.04,-31.25,-5.19,51.70
18700,0.57,0.66,0.07,-28.38,-4.82,38.70
18720,0.59,0.65,0.09,-23.68,-4.70,26.92
18740,0.59,0.65,0.13,-15.32,-2.75,8.00
18760,0.63,0.63,0.13,-9.89,-2.08,-3.05
18780,0.64,0.57,0.14,-2.81,0.79,-18.25
18800,0.60,0.61,0.29,14.65,3.05,-44.49
18820,0.52,0.70,0.23,27.28,6.23,-59.57
18840,0.46,0.75,0.08,37.05,7.51,-68.12
18860,0.47,0.74,-0.01,33.87,12.39,-78.98
18880,0.32,1.18,-0.13,32.53,13.67,-80.14
18900,0.42,0.83,0.01,31.31,5.86,-68.79
18920,0.25,0.86,0.01,45.72,12.76,-75.13
18940,0.26,1.07,0.00,27.53,0.79,-61.22
18960,0.32,1.04,-0.15,23.50,11.17,-55.79
18980,0.52,0.88,-0.17,20.26,19.47,-74.46
19000,0.33,1.26,-0.69,5.62,59.20,-87.77
19020,-0.46,1.66,0.15,19.35,40.04,-77.70
19040,0.09,1.11,-0.08,11.60,-2.75,-21.67
19060,0.21,0.99,-0.08,-8.06,-4.46,-6.90
19080,0.23,1.00,-0.05,-6.16,-2.38,-7.93
19100,0.20,0.99,-0.09,-3.78,6.23,-8.30
19120,0.19,1.00,-0.08,-0.49,2.50,-8.79
19140,0.20,0.99,-0.09,0.43,2.75,-7.26
19160,0.19,1.00,-0.09,0.92,1.34,-7.26
19180,0.18,1.00,-0.09,0.73,1.10,-5.37
19200,0.19,1.00,-0.08,0.49,0.98,-4.21
19220,0.18,1.00,-0.07,0.92,0.85,-3.91
19240,0.18,0.97,-0.09,2.81,1.95,-2.44
19260,0.19,0.99,-0.10,2.50,1.89,-2.08
19280,0.18,1.00,-0.10,1.46,2.32,-1.95
19300,0.18,1.00,-0.09,1.28,2.87,-0.73
19320,0.18,1.00,-0.09,1.10,2.81,-0.06
19340,0.18,1.00,-0.09,1.28,2.87,0.85
19360,0.18,1.00,-0.10,1.65,2.26,1.53
19380,0.19,1.00,-0.10,2.26,2.01,1.65
19400,0.19,0.99,-0.11,2.38,2.38,1.53
19420,0.19,1.00,-0.11,1.65,2.75,1.46
19440,0.19,0.99,-0.11,0.92,3.11,2.01
19460,0.19,1.00,-0.10,0.73,3.48,2.08
19480,0.19,1.00,-0.11,1.22,3.91,2.26
19500,0.19,0.99,-0.11,1.16,4.58,2.44
19520,0.19,0.99,-0.11,0.92,4.76,2.69
19540,0.19,1.00,-0.11,0.79,4.09,3.05
19560,0.18,0.99,-0.11,-0.49,2.62,4.94
19580,0.17,1.00,-0.10,-2.56,0.67,6.53
19600,0.15,1.01,-0.09,-4.70,-2.14,9.89
19620,0.17,1.02,-0.09,-12.39,-9.03,14.53
19640,0.20,1.03,-0.08,-15.50,-12.27,17.88
19660,0.16,1.09,-0.12,-16.05,-12.15,20.45
19680,0.21,1.12,-0.13,-10.13,-16.78,32.59
19700,0.23,1.16,-0.12,-5.86,-21.18,43.15
19720,0.27,1.15,-0.16,-1.22,-19.53,49.99
19740,0.30,1.11,-0.14,-9.03,-7.93,57.13
19760,0.31,1.08,-0.20,-14.71,-9.40,62.62
19780,0.30,1.07,-0.19,-22.40,-9.46,65.49
19800,0.31,1.03,-0.12,-29.36,-11.47,69.58
19820,0.35,0.92,-0.03,-35.58,-15.63,72.51
19840,0.39,0.86,0.00,-40.16,-14.65,72.14
19860,0.45,0.79,0.01,-40.77,-12.33,71.41
19880,0.51,0.70,0.05,-38.64,-8.91,63.72
19900,0.55,0.63,0.07,-35.71,-6.16,53.47
19920,0.57,0.62,0.10,-31.43,-5.86,39.18
19940,0.61,0.58,0.13,-21.67,-3.85,20.02
19960,0.62,0.58,0.16,-14.28,-3.42,5.31
19980,0.63,0.63,0.20,-6.65,-1.65,-9.46
20000,0.61,0.59,0.23,9.58,4.15,-35.28
20020,0.54,0.64,0.23,22.95,5.92,-51.21
20040,0.48,0.75,0.11,30.27,8.79,-61.46
20060,0.54,0.62,-0.16,23.32,14.71,-77.76
20080,0.42,0.91,-0.19,18.55,19.10,-94.91
20100,0.40,0.95,0.04,11.54,10.62,-93.44
20120,0.36,0.78,0.16,22.09,9.46,-92.77
20140,0.08,1.31,0.23,31.62,3.66,-84.78
20160,0.15,1.38,0.07,44.49,9.46,-60.12
20180,0.33,1.03,0.02,56.09,32.78,-37.17
20200,0.61,0.80,-0.63,49.19,60.61,-61.95
20220,-0.11,1.59,-0.35,35.95,72.08,-83.31
20240,-0.17,1.38,0.14,28.38,2.56,-40.16
20260,0.20,0.99,-0.12,-5.80,-2.81,0.24
20280,0.24,0.98,-0.11,-8.06,-7.93,-2.01
20300,0.22,0.99,-0.09,-5.07,2.50,-2.38
20320,0.23,0.98,-0.11,-0.37,3.48,-5.37
20340,0.20,0.99,-0.13,1.16,4.03,-6.53
20360,0.20,0.98,-0.13,-0.49,1.28,-6.47
20380,0.19,1.00,-0.10,-2.75,-0.61,-5.37
20400,0.19,1.00,-0.09,-2.32,-0.06,-3.85
20420,0.19,1.01,-0.09,-1.34,0.18,-2.26
20440,0.20,1.00,-0.11,0.43,1.04,-0.85
20460,0.20,0.99,-0.12,0.06,0.37,-0.31
20480,0.21,0.99,-0.12,-0.67,-0.18,-0.37
20500,0.21,0.99,-0.11,-2.14,-0.18,-1.53
20520,0.20,0.99,-0.10,-2.20,0.24,-1.83
20540,0.19,1.00,-0.10,-1.77,-0.06,-1.46
20560,0.20,1.00,-0.10,-1.53,-1.10,-0.61
20580,0.20,0.99,-0.11,-0.67,-0.67,-1.28
20600,0.19,1.00,-0.10,-0.55,-0.79,-1.10
20620,0.20,0.99,-0.11,-0.55,-1.10,1.46
20640,0.20,1.00,-0.11,-1.46,-1.89,2.01
20660,0.20,0.99,-0.11,-1.65,-1.46,2.08
20680,0.20,0.99,-0.11,-1.65,-1.40,2.01
20700,0.20,1.00,-0.11,-2.08,-1.40,2.38
20720,0.19,1.00,-0.10,-2.81,-2.32,3.54
20740,0.20,1.00,-0.10,-4.03,-3.11,4.94
20760,0.20,1.01,-0.10,-4.52,-3.97,7.51
20780,0.15,1.06,-0.09,-4.70,-4.64,10.62
20800,0.19,1.06,-0.09,-4.70,-8.00,17.09
20820,0.20,1.06,-0.12,-2.56,-10.80,24.23
20840,0.23,1.07,-0.12,-1.34,-11.90,28.63
20860,0.26,1.08,-0.15,-0.12,-10.93,33.02
20880,0.28,1.11,-0.14,-3.66,-10.62,40.95
20900,0.26,1.14,-0.22,-9.77,-7.32,47.00
20920,0.27,1.11,-0.17,-15.01,-9.34,53.83
20940,0.26,1.09,-0.16,-23.44,-10.93,61.22
20960,0.30,1.04,-0.10,-28.69,-12.82,64.76
20980,0.32,0.99,-0.07,-31.49,-15.69,68.48
21000,0.36,0.93,-0.01,-37.72,-14.22,72.45
21020,0.44,0.82,-0.02,-38.21,-11.41,73.36
21040,0.48,0.74,0.00,-37.84,-7.14,70.31
21060,0.51,0.73,0.02,-36.01,-4.88,57.74
21080,0.56,0.68,0.05,-33.57,-3.60,48.10
21100,0.60,0.63,0.08,-29.85,-5.43,38.88
21120,0.61,0.63,0.10,-23.44,-4.21,26.18
21140,0.61,0.64,0.14,-12.70,-3.05,8.30
21160,0.62,0.66,0.14,-7.51,-2.08,-1.95
21180,0.61,0.69,0.18,0.79,-0.92,-14.16
21200,0.59,0.65,0.22,16.24,2.14,-33.57
21220,0.56,0.69,0.22,27.83,3.05,-45.96
21240,0.55,0.62,0.10,36.07,7.69,-55.30
21260,0.45,0.76,-0.11,33.57,16.11,-77.21
21280,0.31,1.18,-0.07,36.07,13.06,-80.32
21300,0.42,0.99,-0.02,33.81,8.36,-65.92
21320,0.43,0.49,0.07,35.71,11.54,-72.88
21340,0.14,1.19,0.03,38.39,20.32,-83.92
21360,0.18,1.24,0.05,41.44,10.31,-63.78
21380,0.34,0.95,-0.09,35.16,14.40,-51.27
21400,0.72,0.66,-0.71,21.06,39.98,-69.95
21420,0.52,1.36,-0.53,-20.75,61.95,-96.07
21440,-0.61,2.09,0.46,-14.53,-14.40,-24.54
21460,0.22,1.00,-0.12,-7.26,3.66,5.07
21480,0.24,0.99,-0.04,-2.50,-9.95,1.28
21500,0.30,0.93,-0.09,2.32,-0.49,0.79
21520,0.26,0.94,-0.16,-2.75,5.80,-7.87
21540,0.25,0.98,-0.12,-5.31,4.15,-12.08
21560,0.23,0.99,-0.10,-4.03,3.85,-14.16
21580,0.16,1.02,-0.06,0.49,-0.49,-15.01
21600,0.17,1.02,-0.07,0.67,-2.87,-8.91
21620,0.20,1.00,-0.09,-1.71,-3.17,-4.76
21640,0.20,1.00,-0.09,-2.69,-1.89,-3.48
21660,0.20,1.00,-0.10,-2.93,-1.77,-2.87
21680,0.21,0.99,-0.10,-3.91,-1.53,-2.62
21700,0.21,1.00,-0.08,-4.52,-0.73,-2.81
21720,0.21,1.00,-0.09,-3.72,0.55,-2.62
21740,0.20,1.00,-0.08,-2.93,1.16,-2.81
21760,0.19,1.00,-0.08,-1.46,0.61,-1.83
21780,0.20,1.00,-0.08,-1.34,-0.37,-0.79
21800,0.20,1.00,-0.08,-1.28,-0.61,-0.37
21820,0.20,1.00,-0.09,-0.98,0.12,-0.31
21840,0.20,1.00,-0.09,-0.85,0.61,0.06
21860,0.20,1.00,-0.09,-1.28,1.10,0.67
21880,0.21,0.99,-0.09,-1.40,1.04,0.61
21900,0.21,0.99,-0.09,-0.49,1.77,0.61
21920,0.20,0.99,-0.10,-0.67,2.14,0.31
21940,0.20,0.99,-0.09,-2.38,1.16,0.31
21960,0.21,0.99,-0.09,-4.58,-0.67,0.55
21980,0.19,1.00,-0.08,-5.37,-1.40,0.49
22000,0.20,1.00,-0.08,-5.68,-2.50,1.71
22020,0.21,1.00,-0.08,-7.75,-3.60,2.50
22040,0.22,1.00,-0.07,-8.36,-2.93,2.81
22060,0.22,1.00,-0.07,-7.14,-1.46,2.44
22080,0.19,1.01,-0.05,-5.25,-1.04,3.72
22100,0.18,1.01,-0.07,-5.68,-1.53,7.20
22120,0.23,0.99,-0.08,-8.12,-3.05,10.68
22140,0.21,1.02,-0.05,-9.16,-2.14,9.64
22160,0.22,1.01,-0.05,-9.52,-1.28,11.54
22180,0.22,1.02,-0.05,-9.16,-0.55,13.73
22200,0.25,1.01,-0.07,-7.45,-0.55,16.78
22220,0.26,1.03,-0.09,-8.48,-2.50,18.68
22240,0.25,1.05,-0.12,-9.09,-2.44,19.53
22260,0.27,1.13,-0.11,-10.80,-8.36,26.67
22280,0.25,1.18,-0.07,-11.90,-8.06,34.97
22300,0.22,1.20,-0.08,-14.28,-6.59,44.86
22320,0.26,1.13,-0.07,-17.03,-6.29,57.74
22340,0.28,1.09,-0.07,-21.18,-3.66,62.56
22360,0.32,0.99,-0.02,-23.74,-4.27,67.26
22380,0.34,0.95,-0.01,-26.79,-2.38,68.24
22400,0.44,0.77,0.05,-26.49,-2.01,69.52
22420,0.50,0.71,0.07,-27.16,0.73,61.16
22440,0.54,0.62,0.05,-24.35,1.95,50.54
22460,0.59,0.52,0.10,-18.37,1.16,25.45
22480,0.64,0.54,0.16,-13.06,-1.22,3.66
22500,0.64,0.43,0.21,-1.83,0.73,-18.25
22520,0.46,0.80,0.30,20.45,-1.16,-49.19
22540,0.41,1.01,0.24,34.61,-1.16,-51.51
22560,0.44,0.84,0.02,44.49,4.03,-47.30
22580,0.52,0.63,-0.11,40.10,11.41,-59.39
22600,0.49,0.52,-0.10,29.36,18.13,-76.35
22620,0.11,1.11,-0.04,25.02,19.84,-95.28
22640,0.08,1.43,0.13,34.06,2.38,-58.96
22660,0.43,1.01,-0.12,40.16,14.65,-41.81
22680,0.44,1.00,-0.44,33.75,33.02,-50.17
22700,0.34,1.06,-0.43,12.15,39.61,-63.11
22720,-0.06,1.29,-0.02,9.64,17.46,-47.42
22740,0.07,1.11,-0.03,2.87,3.36,-19.71
22760,0.20,1.02,-0.06,-3.36,-3.85,-6.47
22780,0.24,0.99,-0.08,-0.06,-0.49,-3.72
22800,0.24,0.97,-0.12,1.95,3.97,-4.33
22820,0.24,0.97,-0.13,1.71,4.76,-6.41
22840,0.21,0.99,-0.10,1.28,4.33,-8.67
22860,0.19,1.00,-0.09,2.26,2.81,-8.48
22880,0.19,1.01,-0.09,2.69,1.04,-6.90
22900,0.20,1.00,-0.10,2.44,0.18,-3.78
22920,0.20,0.99,-0.11,1.46,0.55,-2.62
22940,0.20,0.99,-0.12,0.31,1.04,-2.08
22960,0.21,0.98,-0.12,-2.14,0.43,-2.20
22980,0.20,0.99,-0.11,-3.42,0.18,-2.38
23000,0.20,1.00,-0.10,-3.30,-0.55,-2.50
23020,0.20,1.00,-0.10,-2.38,-0.37,-2.32
23040,0.20,1.00,-0.10,-1.40,-0.31,-2.14
23060,0.20,1.00,-0.11,-0.37,0.24,-2.38
23080,0.20,0.99,-0.11,-0.55,-0.43,-2.44
23100,0.20,0.99,-0.11,-1.53,-0.37,-2.26
23120,0.20,1.00,-0.10,-2.26,-0.67,-2.20
23140,0.20,0.99,-0.10,-2.50,-0.24,-1.71
23160,0.20,0.99,-0.10,-1.71,0.31,-1.83
23180,0.20,1.00,-0.10,-0.67,1.28,-2.14
23200,0.19,1.00,-0.10,-0.43,1.16,-1.46
23220,0.20,1.00,-0.10,0.12,1.34,-0.98
23240,0.20,0.99,-0.10,-0.12,1.28,-0.79
23260,0.20,0.99,-0.11,0.00,1.53,-0.85
23280,0.20,0.99,-0.11,0.18,1.65,-1.10
23300,0.16,1.01,-0.10,0.55,1.53,-0.24
23320,0.17,1.01,-0.09,-0.06,-0.31,2.44
23340,0.18,1.00,-0.11,-1.46,-2.62,7.63
23360,0.18,1.01,-0.12,-4.94,-4.15,10.19
23380,0.18,1.03,-0.09,-8.48,-6.23,12.63
23400,0.15,1.14,-0.09,-11.60,-9.83,22.71
23420,0.15,1.17,-0.14,-9.46,-10.86,32.78
23440,0.14,1.31,-0.12,-3.85,-14.77,43.58
23460,0.28,1.16,-0.12,-0.55,-14.59,63.11
23480,0.27,1.05,-0.29,-10.31,-7.08,64.03
23500,0.33,0.97,-0.30,-23.38,-8.79,63.29
23520,0.33,0.92,-0.21,-35.64,-9.58,57.62
23540,0.35,0.91,-0.05,-47.30,-11.96,57.07
23560,0.38,0.84,0.04,-49.50,-10.86,57.19
23580,0.46,0.73,0.08,-46.26,-9.03,53.22
23600,0.50,0.62,0.08,-36.32,-2.20,37.05
23620,0.53,0.58,0.12,-28.75,-2.69,20.39
23640,0.56,0.58,0.10,-22.22,-3.48,2.87
23660,0.51,0.70,0.15,-10.38,-5.13,-22.71
23680,0.51,0.63,0.17,-0.49,-5.31,-36.25
23700,0.46,0.72,0.13,9.40,-2.69,-51.70
23720,0.39,0.82,0.04,18.31,-0.67,-64.58
23740,0.44,0.80,-0.00,12.39,-2.26,-66.89
23760,0.31,1.07,0.02,12.02,1.65,-74.77
23780,0.32,0.82,0.20,25.21,6.90,-74.04
23800,0.06,1.23,0.14,39.61,17.09,-79.04
23820,0.13,1.54,0.04,54.87,18.55,-57.25
23840,0.13,1.21,-0.45,70.92,40.65,-13.37
23860,0.20,1.11,-0.34,43.09,20.39,-11.66
23880,0.23,1.00,-0.21,12.57,6.16,-10.25
23900,0.25,0.96,-0.14,-6.84,3.05,-12.76
23920,0.22,1.00,-0.04,-4.58,3.85,-14.95
23940,0.21,1.00,-0.06,1.16,7.20,-14.89
23960,0.18,1.00,-0.09,5.74,4.33,-13.79
23980,0.18,0.99,-0.12,5.00,1.16,-11.47
24000,0.18,1.00,-0.10,1.53,-1.71,-9.40
24020,0.19,1.00,-0.09,-0.31,-2.69,-7.14
24040,0.19,1.00,-0.09,0.24,-2.38,-5.49
24060,0.19,1.00,-0.10,0.73,-1.10,-4.58
24080,0.19,0.99,-0.11,-0.06,-0.55,-4.21
24100,0.19,0.99,-0.11,-1.89,0.12,-3.30
24120,0.19,1.00,-0.10,-2.38,0.06,-3.23
24140,0.19,1.00,-0.09,-2.01,-0.37,-2.87
24160,0.19,1.00,-0.10,-0.92,-0.92,-2.93
24180,0.18,1.00,-0.10,0.61,-0.67,-3.42
24200,0.19,0.99,-0.10,0.12,-1.46,-2.69
24220,0.19,1.00,-0.10,-0.31,-1.16,-2.69
24240,0.19,1.00,-0.10,-0.49,-0.43,-2.75
24260,0.19,1.00,-0.10,-0.85,-0.12,-2.87
24280,0.18,1.00,-0.10,-0.67,0.24,-2.62
24300,0.19,1.00,-0.10,-0.49,0.00,-2.26
24320,0.18,1.00,-0.10,-0.67,0.12,-2.26
24340,0.18,1.00,-0.10,0.06,0.55,-2.14
24360,0.18,1.00,-0.10,0.18,0.31,-1.53
24380,0.18,1.00,-0.10,0.43,0.55,-1.71
24400,0.18,1.00,-0.11,0.06,0.24,-1.28
24420,0.18,1.00,-0.10,0.06,0.67,-0.37
24440,0.18,1.00,-0.11,0.12,0.85,0.12
24460,0.18,1.00,-0.10,0.12,1.10,0.37
24480,0.18,1.00,-0.11,0.43,1.16,0.92
24500,0.18,1.00,-0.10,0.73,1.10,1.40
24520,0.19,0.99,-0.12,0.85,1.59,1.34
24540,0.19,0.99,-0.11,0.31,1.22,0.98
24560,0.18,1.00,-0.11,-0.18,1.59,0.85
24580,0.18,1.00,-0.11,-0.37,1.83,1.28
24600,0.18,1.00,-0.11,-0.85,2.81,1.95
24620,0.16,1.00,-0.10,-1.34,3.48,2.75
24640,0.16,1.00,-0.11,-3.11,2.01,7.26
24660,0.17,1.00,-0.12,-9.70,-3.11,9.40
24680,0.18,1.01,-0.10,-15.50,-6.65,10.68
24700,0.15,1.04,-0.08,-20.81,-9.89,12.15
24720,0.19,1.05,-0.05,-22.28,-12.94,18.25
24740,0.20,1.08,-0.08,-18.92,-13.61,23.44
24760,0.11,1.26,-0.16,-14.47,-13.73,29.66
24780,0.20,1.28,-0.12,-12.45,-15.38,49.74
24800,0.24,1.18,-0.18,-16.05,-9.40,59.27
24820,0.27,1.10,-0.18,-22.09,-7.93,64.88
24840,0.27,1.05,-0.13,-29.91,-6.41,67.32
24860,0.28,1.02,-0.05,-37.29,-5.13,71.23
24880,0.31,0.95,0.01,-40.16,-6.77,76.54
24900,0.38,0.84,0.05,-39.92,-5.55,79.04
24920,0.47,0.72,0.10,-32.96,0.00,71.11
24940,0.52,0.66,0.13,-26.86,-0.12,59.75
24960,0.57,0.59,0.12,-22.46,-0.18,44.80
24980,0.62,0.51,0.15,-11.96,-1.16,19.65
25000,0.60,0.58,0.15,-5.13,-0.43,-0.37
25020,0.60,0.68,0.15,3.30,-0.61,-16.91
25040,0.57,0.67,0.24,21.85,0.43,-40.71
25060,0.53,0.59,0.28,36.50,0.55,-56.15
25080,0.39,0.78,0.11,46.57,6.96,-70.13
25100,0.43,0.78,-0.15,41.56,7.75,-72.14
25120,0.25,1.18,-0.27,34.91,17.46,-77.88
25140,0.43,0.84,0.01,25.82,4.39,-67.08
25160,0.37,0.64,0.02,29.97,20.14,-88.38
25180,0.16,1.43,0.03,34.00,9.34,-77.94
25200,0.21,1.29,-0.51,34.55,26.37,-56.27
25220,0.32,1.06,-0.33,17.88,14.47,-39.73
25240,0.24,1.08,-0.17,-3.54,22.52,-38.33
25260,0.07,1.16,0.08,-2.62,16.48,-31.56
25280,0.08,1.14,0.09,4.03,4.15,-15.81
25300,0.22,0.99,-0.11,7.81,7.20,-1.89
25320,0.23,0.97,-0.12,6.29,4.94,-2.99
25340,0.24,0.95,-0.16,3.60,6.96,-3.17
25360,0.21,0.99,-0.10,1.40,4.70,-6.29
25380,0.19,1.01,-0.07,2.93,4.64,-4.94
25400,0.19,1.00,-0.10,4.64,4.64,-3.17
25420,0.21,0.99,-0.11,3.30,1.89,-2.44
25440,0.20,0.99,-0.12,1.83,3.42,-2.62
25460,0.20,0.99,-0.12,0.12,2.26,-2.26
25480,0.20,0.99,-0.12,-1.40,1.28,-2.20
25500,0.20,0.99,-0.12,-3.23,-0.06,-2.38
25520,0.21,0.99,-0.11,-3.97,-0.79,-2.44
25540,0.21,0.99,-0.11,-3.66,-1.04,-3.05
25560,0.20,0.99,-0.11,-3.42,-0.85,-3.54
25580,0.20,1.00,-0.10,-2.62,-1.04,-3.48
25600,0.20,1.00,-0.10,-1.77,-0.73,-2.99
25620,0.20,0.99,-0.11,-1.53,-0.55,-2.38
25640,0.20,1.00,-0.11,-1.83,-0.31,-1.95
25660,0.20,1.00,-0.10,-1.77,-0.12,-1.22
25680,0.20,1.00,-0.10,-1.28,0.31,-0.61
25700,0.20,1.00,-0.10,-0.43,0.61,-0.18
25720,0.20,0.99,-0.11,0.31,1.10,-0.06
25740,0.20,0.99,-0.11,0.31,1.40,0.06
25760,0.20,0.99,-0.11,-0.12,1.71,0.00
25780,0.20,1.00,-0.10,-0.18,1.83,0.00
25800,0.19,1.00,-0.10,-0.67,1.46,0.98
25820,0.19,1.00,-0.10,-0.98,0.43,1.89
25840,0.18,1.00,-0.10,-1.95,-0.61,2.93
25860,0.17,1.00,-0.10,-4.88,-3.11,4.76
25880,0.17,1.02,-0.09,-7.39,-5.92,7.75
25900,0.16,1.04,-0.07,-9.03,-9.28,12.70
25920,0.17,1.12,-0.12,-10.86,-10.56,20.87
25940,0.21,1.11,-0.11,-8.91,-13.61,28.99
25960,0.21,1.13,-0.09,-3.30,-12.63,35.16
25980,0.23,1.13,-0.18,-0.49,-12.02,44.43
26000,0.30,1.08,-0.16,-4.33,-10.74,50.05
26020,0.26,1.13,-0.20,-11.17,-7.93,53.71
26040,0.30,1.05,-0.17,-18.25,-10.13,58.47
26060,0.34,0.94,-0.15,-27.95,-11.11,59.02
26080,0.34,0.94,-0.09,-32.96,-11.29,56.95
26100,0.37,0.86,-0.01,-35.16,-12.94,56.76
26120,0.43,0.80,0.06,-34.61,-11.11,53.16
26140,0.46,0.78,0.09,-29.85,-9.22,47.67
26160,0.49,0.75,0.10,-24.48,-6.90,41.32
26180,0.53,0.71,0.09,-16.05,-3.66,27.28
26200,0.55,0.68,0.08,-10.86,-1.83,16.36
26220,0.53,0.72,0.11,-5.37,-0.31,4.39
26240,0.57,0.64,0.08,2.20,2.69,-11.66
26260,0.57,0.61,0.09,8.36,5.55,-27.59
26280,0.50,0.71,0.08,14.77,7.51,-43.33
26300,0.44,0.78,0.01,22.16,6.96,-56.46
26320,0.41,0.88,-0.01,23.01,6.16,-63.29
26340,0.41,0.82,0.01,24.29,5.98,-65.61
26360,0.45,0.71,0.01,24.72,16.66,-80.14
26380,0.19,1.03,0.03,25.76,16.30,-84.59
26400,0.21,1.14,-0.06,25.76,12.63,-75.38
26420,0.39,1.11,-0.16,26.37,27.71,-68.54
26440,0.18,1.31,-0.62,21.79,51.57,-70.98
26460,-0.17,1.43,-0.06,26.86,30.15,-55.11
26480,-0.01,1.14,-0.04,4.64,-1.59,-4.39
26500,0.22,0.99,-0.09,-11.47,-5.98,-3.11
26520,0.22,1.02,-0.02,-8.12,-4.88,-3.72
26540,0.23,0.97,-0.09,-2.01,4.09,-2.26
26560,0.25,0.96,-0.12,0.06,3.78,-5.74
26580,0.23,0.98,-0.12,0.24,6.90,-8.67
26600,0.17,1.02,-0.08,1.34,4.88,-9.70
26620,0.17,1.01,-0.07,1.04,0.18,-4.94
26640,0.19,1.00,-0.08,0.98,-1.10,-2.99
26660,0.21,1.00,-0.08,1.53,-0.18,-2.32
26680,0.19,0.99,-0.11,1.83,1.71,-2.93
26700,0.19,0.99,-0.11,0.61,1.04,-3.17
26720,0.19,0.99,-0.11,-0.79,0.67,-2.99
26740,0.19,1.00,-0.09,-1.77,-0.06,-2.56
26760,0.19,1.00,-0.09,-1.04,0.24,-2.14
26780,0.19,1.00,-0.09,-0.18,0.31,-1.46
26800,0.19,1.00,-0.12,0.98,0.43,-0.85
26820,0.19,0.99,-0.11,1.46,0.73,-0.98
26840,0.19,0.99,-0.11,1.04,0.98,-0.85
26860,0.19,1.00,-0.10,-0.06,1.22,-0.43
26880,0.19,1.00,-0.10,-0.31,1.53,-0.24
26900,0.19,1.00,-0.10,-0.06,1.83,0.12
26920,0.19,1.00,-0.10,0.37,1.95,0.73
26940,0.19,1.00,-0.10,1.16,2.56,1.16
26960,0.20,1.00,-0.10,1.59,3.17,1.34
26980,0.19,0.99,-0.11,2.38,3.66,1.22
27000,0.19,1.00,-0.11,1.83,3.97,1.40
27020,0.19,1.00,-0.11,1.71,4.03,1.65
27040,0.19,0.99,-0.11,0.98,3.78,1.65
27060,0.20,0.99,-0.11,-0.49,2.99,1.95
27080,0.18,1.00,-0.11,-0.55,2.93,1.83
27100,0.18,1.00,-0.11,-1.04,1.77,2.38
27120,0.16,1.00,-0.10,-3.60,-1.34,5.68
27140,0.13,1.03,-0.11,-6.35,-5.00,9.16
27160,0.16,1.05,-0.09,-12.57,-12.08,15.44
27180,0.18,1.09,-0.12,-15.63,-13.18,23.25
27200,0.16,1.16,-0.09,-11.66,-15.26,30.33
27220,0.22,1.17,-0.11,-6.53,-20.08,41.50
27240,0.27,1.17,-0.16,-1.53,-15.44,54.14
27260,0.28,1.11,-0.23,-9.77,-9.95,57.50
27280,0.28,1.09,-0.22,-17.52,-10.01,61.34
27300,0.28,1.07,-0.19,-26.49,-13.37,66.71
27320,0.29,1.03,-0.10,-36.68,-12.88,68.30
27340,0.34,0.96,-0.03,-40.59,-14.83,72.02
27360,0.36,0.91,0.01,-43.58,-12.88,73.91
27380,0.43,0.85,0.06,-41.56,-9.22,74.71
27400,0.49,0.77,0.05,-39.79,-6.77,73.49
27420,0.53,0.70,0.07,-36.13,-4.94,65.31
27440,0.60,0.58,0.10,-27.89,-3.91,48.03
27460,0.65,0.53,0.14,-19.65,-3.85,32.84
27480,0.64,0.51,0.16,-10.38,-1.46,13.31
27500,0.66,0.44,0.27,5.49,1.28,-17.52
27520,0.61,0.59,0.20,15.69,5.43,-38.02
27540,0.56,0.71,0.15,27.34,6.96,-51.27
27560,0.55,0.71,0.03,37.05,9.95,-65.92
27580,0.56,0.56,-0.02,37.23,12.02,-80.44
27600,0.46,0.47,-0.06,34.42,15.32,-99.37
27620,0.27,1.04,0.00,28.69,15.08,-108.46
27640,0.17,1.36,0.06,35.71,5.92,-79.53
27660,0.29,1.02,-0.02,40.47,9.58,-59.75
27680,0.43,0.79,-0.09,33.69,22.46,-72.02
27700,0.48,1.11,-0.47,25.51,57.13,-94.67
27720,-0.23,1.78,-0.35,17.58,75.01,-95.28
27740,0.04,1.35,0.10,20.14,-6.04,-7.69
27760,0.22,0.98,-0.12,-18.62,-4.70,-6.59
27780,0.21,1.03,-0.01,-14.59,-14.65,-9.28
27800,0.24,0.99,-0.06,-6.53,-0.24,-6.77
27820,0.23,0.98,-0.09,-1.46,2.44,-9.40
27840,0.23,0.98,-0.11,-0.06,5.62,-10.13
27860,0.19,1.00,-0.10,-0.43,5.43,-10.44
27880,0.17,1.02,-0.06,0.31,0.24,-7.69
27900,0.18,1.01,-0.07,1.34,-0.55,-4.88
27920,0.19,1.00,-0.08,2.01,-0.37,-3.05
27940,0.19,1.00,-0.10,3.17,3.97,-1.77
27960,0.19,0.99,-0.11,1.34,3.60,-1.28
27980,0.20,0.99,-0.11,-0.43,2.81,-0.79
28000,0.19,1.00,-0.09,-1.71,1.77,-0.73
28020,0.19,1.00,-0.09,-1.59,1.34,-0.37
28040,0.20,1.00,-0.09,-0.79,1.46,-0.06
28060,0.20,1.00,-0.12,0.85,1.16,0.12
28080,0.20,0.99,-0.10,1.34,0.79,0.00
28100,0.19,1.00,-0.10,1.59,1.28,-0.31
28120,0.20,0.99,-0.10,-0.06,0.73,-0.12
28140,0.20,1.00,-0.10,-0.61,0.61,0.00
28160,0.20,1.00,-0.10,-0.73,0.61,0.12
28180,0.20,0.99,-0.10,-0.73,0.98,-0.12
28200,0.20,1.00,-0.10,-0.55,1.40,-0.24
28220,0.19,1.00,-0.09,-0.06,1.46,-0.12
28240,0.19,1.00,-0.09,0.31,1.34,0.73
28260,0.16,1.01,-0.08,0.18,0.18,2.26
28280,0.19,1.00,-0.10,-0.92,-1.34,5.31
28300,0.17,1.01,-0.09,-1.95,-2.44,7.93
28320,0.19,1.02,-0.09,-5.62,-4.88,14.16
28340,0.16,1.07,-0.09,-5.98,-5.00,18.07
28360,0.16,1.11,-0.10,-6.16,-7.57,26.31
28380,0.19,1.18,-0.10,-2.01,-15.63,41.02
28400,0.25,1.14,-0.16,3.78,-16.85,49.62
28420,0.30,1.06,-0.20,0.92,-14.34,54.32
28440,0.27,1.10,-0.24,-14.10,-9.77,57.25
28460,0.28,1.08,-0.21,-22.64,-12.02,61.22
28480,0.29,1.09,-0.16,-30.40,-14.59,65.55
28500,0.29,1.03,-0.13,-40.53,-15.63,72.08
28520,0.36,0.94,-0.03,-46.14,-16.85,75.93
28540,0.42,0.86,0.01,-48.58,-14.53,77.33
28560,0.46,0.76,0.07,-46.75,-10.01,72.75
28580,0.56,0.61,0.10,-38.51,-6.10,61.77
28600,0.58,0.57,0.14,-31.68,-5.62,46.57
28620,0.59,0.59,0.15,-23.80,-3.66,31.19
28640,0.64,0.55,0.15,-12.33,-1.89,9.83
28660,0.66,0.56,0.14,-4.27,0.55,-7.57
28680,0.70,0.43,0.25,8.91,1.65,-27.83
28700,0.56,0.58,0.22,30.64,5.92,-62.99
28720,0.45,0.76,0.14,39.86,7.75,-76.23
28740,0.40,0.87,0.05,42.72,7.81,-80.63
28760,0.35,1.01,-0.12,39.61,11.96,-78.74
28780,0.50,0.65,-0.06,32.17,9.09,-76.17
28800,0.40,0.47,-0.12,25.33,24.54,-93.81
28820,0.06,1.43,0.08,23.07,12.88,-106.02
28840,0.28,1.58,-0.09,33.87,14.95,-78.67
28860,0.00,1.53,-0.70,39.55,40.83,-57.37
28880,0.15,1.19,-0.30,-1.77,11.78,-36.74
28900,0.13,1.09,-0.09,-27.59,2.69,-34.42
28920,0.18,1.04,0.02,-28.63,-15.32,-28.87
28940,0.23,1.01,0.00,-14.53,-8.42,-25.21
28960,0.15,1.03,0.03,-2.56,-3.48,-22.71
28980,0.13,1.04,-0.01,4.70,0.18,-14.10
29000,0.18,1.01,-0.07,5.00,0.49,-4.52
29020,0.18,1.00,-0.06,1.95,-0.12,-3.48
29040,0.19,1.00,-0.06,1.10,-0.06,-2.99
29060,0.19,1.00,-0.06,0.98,0.24,-3.36
29080,0.19,1.00,-0.06,0.61,0.98,-3.48
29100,0.19,1.00,-0.06,0.79,1.40,-3.60
29120,0.18,1.00,-0.07,0.00,1.59,-2.99
29140,0.18,1.00,-0.06,-0.85,1.04,-1.83
29160,0.18,1.00,-0.06,-0.73,0.18,-0.79
29180,0.18,1.00,-0.06,-0.18,-0.37,-0.12
29200,0.19,1.00,-0.07,-0.37,-0.55,-0.18
29220,0.19,1.00,-0.06,-0.85,-0.67,-0.73
29240,0.19,1.00,-0.06,-0.24,0.12,-1.16
29260,0.18,1.00,-0.07,0.18,0.61,-1.04
29280,0.18,1.00,-0.06,0.06,0.85,-0.43
29300,0.18,1.00,-0.07,-0.12,1.16,0.00
29320,0.18,1.00,-0.06,0.06,1.59,0.49
29340,0.19,1.00,-0.06,0.67,2.14,0.85
29360,0.19,1.00,-0.07,2.01,3.54,0.92
29380,0.19,1.00,-0.07,2.26,4.46,1.16
29400,0.19,1.00,-0.07,1.65,4.46,1.22
29420,0.19,1.00,-0.07,1.83,4.09,1.28
29440,0.19,1.00,-0.08,1.65,3.72,1.16
29460,0.18,1.00,-0.07,1.40,3.78,0.92
29480,0.18,1.00,-0.08,0.55,2.75,1.71
29500,0.16,1.01,-0.07,0.06,1.53,2.50
29520,0.16,1.02,-0.05,-0.92,0.43,6.65
29540,0.16,1.03,-0.06,-1.71,0.24,10.56
29560,0.16,1.04,-0.04,-4.03,-0.55,15.38
29580,0.16,1.08,-0.05,-4.88,0.31,23.68
29600,0.14,1.18,-0.05,-2.14,-1.46,32.90
29620,0.15,1.23,-0.12,2.14,-7.87,47.61
29640,0.24,1.20,-0.14,8.91,-14.28,63.84
29660,0.31,1.08,-0.16,4.09,-9.83,68.79
29680,0.32,1.03,-0.26,-5.43,-4.46,69.64
29700,0.30,0.99,-0.23,-20.02,-9.03,69.64
29720,0.34,0.97,-0.18,-29.79,-11.47,68.42
29740,0.35,0.95,-0.09,-36.25,-15.32,68.36
29760,0.38,0.88,-0.04,-44.07,-13.67,67.32
29780,0.43,0.84,0.04,-42.30,-12.88,65.92
29800,0.50,0.73,0.10,-39.37,-11.66,62.56
29820,0.54,0.66,0.12,-34.12,-6.90,47.91
29840,0.59,0.60,0.12,-23.50,-3.66,34.48
29860,0.61,0.56,0.14,-15.81,-3.11,20.02
29880,0.62,0.54,0.19,-8.30,-1.71,4.03
29900,0.62,0.58,0.12,3.72,5.00,-22.52
29920,0.61,0.56,0.16,14.83,6.10,-40.34
29940,0.52,0.66,0.17,25.51,8.85,-58.53
29960,0.46,0.72,0.05,36.44,8.36,-71.78
29980,0.46,0.71,-0.07,32.78,11.35,-79.41
30000,0.43,0.86,-0.12,28.44,13.98,-88.01
30020,0.34,0.84,0.02,26.67,14.83,-90.45
30040,0.23,0.83,0.07,29.97,21.00,-95.15
30060,0.15,1.10,0.13,35.77,15.14,-95.09
30080,-0.17,1.83,-1.13,40.10,60.91,-84.11
30100,-0.05,1.52,-0.28,23.62,30.76,-57.92
30120,0.15,1.11,-0.17,-3.60,4.64,-29.54
30140,0.13,1.06,0.01,-19.90,-4.21,-18.98
30160,0.20,1.03,0.01,-10.56,-6.84,-12.51
30180,0.19,1.01,-0.03,-3.60,2.69,-8.00
30200,0.22,0.99,-0.07,4.94,7.26,-6.10
30220,0.20,0.98,-0.13,4.09,9.46,-6.41
30240,0.17,1.00,-0.10,1.16,3.78,-6.04
30260,0.18,1.01,-0.07,0.00,-0.18,-2.87
30280,0.19,1.00,-0.07,1.83,-0.79,-1.65
30300,0.20,1.00,-0.08,3.48,0.61,-1.40
30320,0.20,1.00,-0.09,3.78,3.48,-0.85
30340,0.20,0.99,-0.11,2.20,4.39,-0.55
30360,0.19,0.99,-0.11,1.16,3.91,-0.31
30380,0.19,0.99,-0.10,-0.49,1.95,0.43
30400,0.20,1.00,-0.10,-0.98,1.16,0.24
30420,0.20,1.00,-0.09,-0.55,1.16,0.24
30440,0.20,1.00,-0.10,0.24,1.10,0.18
30460,0.20,0.99,-0.11,0.55,0.61,-0.37
30480,0.20,0.99,-0.11,-0.06,0.12,-0.92
30500,0.20,0.99,-0.11,-1.22,0.06,-1.16
30520,0.20,0.99,-0.10,-2.56,0.06,-1.16
30540,0.20,1.00,-0.09,-2.81,0.06,-1.16
30560,0.20,1.00,-0.10,-2.32,0.49,-0.79
30580,0.20,1.00,-0.10,-1.40,0.92,-0.85
30600,0.20,1.00,-0.09,-0.61,1.28,-0.49
30620,0.18,1.00,-0.09,-0.24,1.28,-0.06
30640,0.19,1.00,-0.10,-15.56,0.24,1.71
30660,0.17,1.00,-0.10,-0.85,-0.73,2.56
30680,0.19,1.00,-0.11,-2.32,-2.26,5.07
30700,0.17,1.01,-0.09,-4.58,-2.87,7.93
30720,0.14,1.05,-0.05,-6.53,-6.23,13.12
30740,0.20,1.02,-0.09,-8.00,-7.39,19.17
30760,0.19,1.06,-0.07,-7.14,-6.16,21.12
30780,0.16,1.17,-0.12,-5.68,-10.99,33.51
30800,0.19,1.20,-0.14,-3.23,-15.20,43.40
30820,0.24,1.20,-0.18,-0.79,-16.17,53.04
30840,0.26,1.15,-0.24,-10.86,-10.25,63.23
30860,0.27,1.13,-0.21,-18.25,-11.96,69.46
30880,0.30,1.04,-0.17,-26.18,-11.90,74.34
30900,0.34,0.94,-0.07,-36.50,-12.82,77.03
30920,0.38,0.84,-0.02,-41.63,-10.31,76.78
30940,0.44,0.77,0.02,-44.19,-9.46,74.40
30960,0.50,0.61,0.06,-40.10,-6.96,61.77
30980,0.58,0.56,0.09,-34.06,-5.13,47.55
31000,0.60,0.54,0.13,-25.88,-4.88,29.30
31020,0.60,0.57,0.16,-13.00,-4.76,2.99
31040,0.60,0.61,0.17,-4.94,-3.23,-12.15
31060,0.58,0.63,0.15,3.36,-0.31,-27.71
31080,0.56,0.65,0.14,11.84,3.72,-50.96
31100,0.52,0.69,0.07,23.50,3.48,-61.52
31120,0.51,0.56,0.01,25.51,5.62,-75.74
31140,0.40,0.69,-0.05,22.64,7.02,-91.67
31160,0.26,1.08,0.06,21.73,2.75,-92.96
31180,0.27,1.00,0.06,25.70,7.51,-85.75
31200,0.33,0.83,0.04,33.75,14.28,-85.63
31220,0.28,1.45,-0.11,44.68,30.33,-91.55
31240,-0.32,1.76,-0.63,63.23,55.24,-68.48
31260,0.08,1.08,-0.30,35.10,8.24,-19.04
31280,0.24,0.99,-0.09,-19.53,-1.59,-13.98
31300,0.16,1.06,0.05,-15.63,-3.66,-15.69
31320,0.20,1.01,-0.02,-4.94,1.28,-9.95
31340,0.21,0.99,-0.06,3.85,4.70,-6.90
31360,0.20,0.98,-0.11,5.86,8.54,-6.16
31380,0.20,0.98,-0.13,2.38,5.68,-4.64
31400,0.19,1.00,-0.09,-1.65,-0.12,-3.78
31420,0.20,1.01,-0.05,0.06,-0.98,-2.87
31440,0.20,1.00,-0.07,3.23,1.65,-1.83
31460,0.20,1.00,-0.08,5.55,6.29,-1.77
31480,0.19,1.00,-0.10,4.21,6.65,-0.61
31500,0.19,0.99,-0.11,2.32,5.13,0.31
31520,0.20,0.99,-0.10,0.37,2.75,0.98
31540,0.20,0.99,-0.10,-0.85,2.01,0.61
31560,0.20,0.99,-0.09,-0.92,1.83,0.24
31580,0.20,1.00,-0.10,-0.31,1.77,-0.24
31600,0.20,1.00,-0.10,1.04,1.46,-0.92
31620,0.20,0.99,-0.10,1.95,2.20,-0.79
31640,0.20,0.99,-0.10,1.65,2.62,-0.73
31660,0.20,0.99,-0.11,0.73,2.75,-0.49
31680,0.20,1.00,-0.09,-0.43,1.95,-0.98
31700,0.20,0.99,-0.11,0.00,2.01,-0.67
31720,0.20,1.00,-0.10,-0.24,1.10,-0.85
31740,0.20,1.00,-0.10,-0.24,0.61,-0.61
31760,0.20,0.99,-0.10,0.37,0.61,-0.37
31780,0.20,0.99,-0.11,0.31,0.43,-0.24
31800,0.20,0.99,-0.11,-0.12,0.61,-0.49
31820,0.20,0.99,-0.11,-0.49,0.49,-0.55
31840,0.20,0.99,-0.11,-1.04,0.73,-0.55
31860,0.20,0.99,-0.10,-1.04,0.55,-0.55
31880,0.20,1.00,-0.10,-1.04,0.55,-0.37
31900,0.20,0.99,-0.11,-0.85,0.85,-0.12
31920,0.19,1.00,-0.10,-0.92,0.31,0.12
31940,0.17,1.00,-0.09,-1.34,-0.61,1.59
31960,0.17,1.01,-0.09,-2.75,-2.44,3.60
31980,0.19,1.00,-0.10,-5.00,-4.94,8.18
32000,0.18,1.02,-0.10,-7.20,-5.00,10.62
32020,0.17,1.06,-0.09,-9.22,-5.86,15.32
32040,0.15,1.14,-0.12,-8.79,-7.14,25.70
32060,0.11,1.28,-0.08,-5.86,-14.16,38.21
32080,0.27,1.18,-0.13,2.01,-17.46,53.59
32100,0.33,1.04,-0.18,-0.67,-10.01,60.12
32120,0.29,1.06,-0.24,-9.52,-6.71,60.42
32140,0.29,1.03,-0.20,-17.40,-8.36,62.32
32160,0.31,1.03,-0.15,-28.69,-13.06,65.49
32180,0.34,0.95,-0.10,-34.97,-13.85,67.50
32200,0.37,0.89,-0.06,-41.08,-13.43,67.75
32220,0.40,0.79,0.02,-42.97,-11.96,66.41
32240,0.50,0.71,0.07,-39.98,-9.70,61.04
32260,0.54,0.66,0.11,-33.75,-7.87,51.03
32280,0.58,0.60,0.14,-21.85,-4.88,30.03
32300,0.60,0.57,0.15,-12.51,-3.30,14.28
32320,0.64,0.57,0.20,-3.36,-0.98,-1.40
32340,0.62,0.53,0.17,6.35,7.75,-31.13
32360,0.53,0.57,0.21,25.94,9.03,-52.12
32380,0.47,0.71,0.13,35.89,9.03,-66.41
32400,0.47,0.64,-0.05,38.45,9.52,-74.46
32420,0.35,0.96,-0.09,35.83,11.17,-81.54
32440,0.40,0.89,-0.03,31.49,14.77,-79.28
32460,0.35,0.73,-0.01,31.37,19.71,-84.66
32480,0.19,1.13,-0.06,29.05,19.17,-87.40
32500,0.32,1.45,-0.57,23.99,38.45,-80.75
32520,0.13,1.42,-0.22,7.69,44.25,-67.44
32540,0.16,1.15,-0.15,-0.37,8.79,-27.22
32560,0.11,1.07,-0.03,-8.24,8.00,-17.15
32580,0.17,1.05,0.00,-4.39,-1.34,-9.16
32600,0.24,0.97,-0.10,1.10,5.80,-2.93
32620,0.26,0.96,-0.13,2.81,5.74,-5.98
32640,0.26,0.95,-0.14,2.50,7.69,-9.28
32660,0.22,0.98,-0.05,4.33,6.71,-14.95
32680,0.13,1.05,-0.05,4.70,-0.49,-6.29
32700,0.21,0.99,-0.10,1.89,-2.01,0.43
32720,0.21,1.00,-0.09,2.44,-0.79,-0.37
32740,0.21,0.98,-0.13,2.14,1.40,-0.73
32760,0.21,0.98,-0.12,0.24,0.85,-1.71
32780,0.21,0.99,-0.12,-1.16,1.04,-2.62
32800,0.21,0.99,-0.11,-2.44,1.28,-3.85
32820,0.20,1.00,-0.10,-1.71,1.95,-4.58
32840,0.19,1.00,-0.10,-1.04,2.32,-4.39
32860,0.19,1.00,-0.10,-0.61,1.40,-2.87
32880,0.20,0.99,-0.11,0.18,1.16,-2.26
32900,0.20,0.99,-0.11,-0.31,0.24,-2.38
32920,0.20,0.99,-0.11,-1.34,0.06,-1.71
32940,0.20,0.99,-0.11,-2.14,0.24,-1.59
32960,0.20,0.99,-0.11,-2.38,0.49,-1.22
32980,0.20,1.00,-0.10,-2.01,0.98,-1.22
33000,0.20,0.99,-0.11,-1.16,1.34,-1.16
33020,0.20,0.99,-0.10,-0.85,1.65,-1.28
33040,0.20,0.99,-0.11,-0.43,1.34,-1.22
33060,0.19,1.00,-0.10,-0.49,1.28,-1.28
33080,0.20,1.00,-0.10,-0.31,1.16,-0.85
33100,0.19,1.00,-0.11,-0.49,1.22,-0.55
33120,0.20,0.99,-0.11,-0.49,1.34,-0.12
33140,0.20,0.99,-0.11,-0.12,1.46,-0.18
33160,0.17,1.00,-0.09,-0.24,0.85,1.28
33180,0.12,1.04,-0.07,0.06,-1.89,5.19
33200,0.19,1.00,-0.12,-2.81,-5.55,12.02
33220,0.18,1.01,-0.12,-7.69,-8.42,13.67
33240,0.16,1.10,-0.09,-13.06,-13.18,20.51
33260,0.19,1.10,-0.09,-11.47,-14.89,27.53
33280,0.19,1.12,-0.11,-6.29,-15.69,34.91
33300,0.25,1.12,-0.17,-5.13,-13.67,46.39
33320,0.26,1.15,-0.22,-11.78,-9.16,51.64
33340,0.29,1.04,-0.26,-18.01,-9.52,56.64
33360,0.30,1.04,-0.17,-32.10,-12.39,57.98
33380,0.30,1.01,-0.12,-38.39,-11.60,60.85
33400,0.31,0.99,-0.01,-41.63,-12.27,63.54
33420,0.40,0.86,0.05,-42.11,-8.06,67.99
33440,0.44,0.78,0.06,-36.99,-3.91,63.54
33460,0.50,0.71,0.11,-32.65,-2.26,57.19
33480,0.55,0.58,0.09,-22.34,-0.43,36.07
33500,0.62,0.50,0.09,-15.14,-0.98,18.98
33520,0.64,0.45,0.12,-9.16,1.95,-3.11
33540,0.65,0.36,0.16,5.86,5.25,-44.49
33560,0.44,0.66,0.25,22.64,1.77,-67.38
33580,0.38,0.90,0.22,35.89,-1.22,-76.66
33600,0.41,0.78,0.01,41.08,2.75,-75.01
33620,0.35,0.98,-0.18,33.57,15.01,-88.44
33640,0.44,0.68,-0.01,26.61,12.82,-90.88
33660,0.27,0.93,-0.12,27.10,28.08,-110.11
33680,-0.57,2.51,-1.03,49.50,70.01,-113.59
33700,-0.14,1.60,0.22,63.05,-6.10,-28.99
33720,0.18,0.98,-0.28,10.19,5.00,0.67
33740,0.23,1.00,-0.06,-12.57,-4.21,-3.48
33760,0.25,0.99,-0.03,-5.86,4.27,-3.36
33780,0.25,0.97,-0.09,0.49,11.60,-3.91
33800,0.22,0.99,-0.10,5.80,9.22,-7.08
33820,0.19,0.99,-0.14,6.90,8.42,-7.69
33840,0.18,1.00,-0.11,4.27,3.23,-7.75
33860,0.18,1.01,-0.08,-0.67,-1.83,-4.27
33880,0.20,1.01,-0.08,0.49,-2.01,-2.01
33900,0.19,1.00,-0.09,3.23,0.67,-0.67
33920,0.20,0.99,-0.11,3.97,3.42,0.00
33940,0.20,0.99,-0.12,1.53,2.93,-0.31
33960,0.20,0.99,-0.12,-0.43,2.26,-0.18
33980,0.20,1.00,-0.11,-1.16,1.34,-0.12
34000,0.21,1.00,-0.10,0.00,1.34,0.24
34020,0.20,0.99,-0.11,1.83,2.26,0.37
34040,0.21,0.99,-0.11,1.89,1.89,-0.37
34060,0.20,0.99,-0.12,0.85,1.59,-1.16
34080,0.20,0.99,-0.12,0.24,1.22,-1.22
34100,0.20,0.99,-0.11,-0.85,0.85,-1.22
34120,0.20,0.99,-0.11,-1.22,0.55,-1.04
34140,0.20,0.99,-0.11,-1.34,0.67,-0.98
34160,0.20,0.99,-0.11,-1.28,0.73,-1.10
34180,0.20,1.00,-0.11,-0.79,0.79,-0.92
34200,0.20,0.99,-0.12,-0.55,0.79,-0.49
34220,0.20,0.99,-0.11,-0.61,0.79,-0.43
34240,0.20,0.99,-0.12,-0.55,1.04,0.00
34260,0.20,0.99,-0.11,-0.55,1.40,0.18
34280,0.20,0.99,-0.11,-0.92,1.34,0.79
34300,0.20,1.00,-0.11,-0.61,1.53,1.16
34320,0.19,0.99,-0.11,-0.67,1.34,1.65
34340,0.20,0.99,-0.12,-1.16,0.55,2.20
34360,0.19,0.99,-0.12,-3.97,-1.28,2.38
34380,0.19,0.99,-0.12,-5.92,-2.62,2.75
34400,0.19,1.00,-0.10,-8.85,-4.88,4.09
34420,0.17,1.03,-0.08,-11.41,-9.03,8.97
34440,0.21,1.00,-0.10,-11.29,-7.45,10.80
34460,0.20,1.02,-0.09,-11.17,-6.71,12.45
34480,0.18,1.08,-0.08,-12.02,-7.02,16.36
34500,0.20,1.10,-0.10,-10.07,-9.46,25.51
34520,0.21,1.11,-0.12,-7.32,-11.84,30.58
34540,0.21,1.17,-0.16,-5.19,-15.01,37.66
34560,0.28,1.12,-0.14,-5.00,-13.12,50.23
34580,0.26,1.15,-0.18,-11.11,-9.70,55.66
34600,0.27,1.12,-0.19,-17.33,-9.70,62.19
34620,0.25,1.15,-0.14,-26.43,-11.78,71.23
34640,0.27,1.07,-0.05,-32.23,-15.26,79.28
34660,0.32,0.96,-0.03,-37.48,-16.54,85.88
34680,0.46,0.79,0.01,-42.11,-16.30,90.58
34700,0.50,0.72,0.00,-43.15,-9.95,85.94
34720,0.58,0.57,0.05,-41.26,-8.18,76.17
34740,0.60,0.55,0.09,-34.30,-5.43,49.62
34760,0.64,0.49,0.14,-25.39,-5.80,33.75
34780,0.66,0.47,0.17,-16.97,-5.62,15.38
34800,0.68,0.51,0.24,-1.71,-3.42,-12.88
34820,0.68,0.46,0.26,12.76,2.14,-34.79
34840,0.64,0.49,0.25,30.40,4.15,-56.58
34860,0.54,0.51,0.13,41.26,6.53,-84.59
34880,0.46,0.60,-0.04,38.82,7.26,-101.26
34900,0.31,1.12,-0.09,34.36,12.94,-111.88
34920,0.31,1.17,0.01,36.56,7.81,-96.25
34940,0.26,0.84,0.02,38.27,17.03,-87.52
34960,0.18,1.04,0.11,39.49,14.10,-87.10
34980,0.31,1.09,-0.09,38.57,17.70,-78.49
35000,0.04,1.55,-1.03,28.81,59.75,-84.84
35020,-0.07,1.55,-0.28,13.98,34.79,-72.08
35040,0.03,1.20,0.00,-4.58,2.26,-37.05
35060,0.15,1.07,0.03,-17.40,-11.60,-12.02
35080,0.23,1.00,-0.02,-8.54,-10.86,-7.39
35100,0.23,0.99,-0.06,-2.75,-0.67,-6.47
35120,0.23,0.97,-0.11,0.67,2.56,-9.16
35140,0.20,0.99,-0.11,-1.16,4.03,-10.31
35160,0.18,1.01,-0.06,-1.46,0.85,-10.01
35180,0.18,1.01,-0.05,1.10,-0.43,-6.77
35200,0.19,1.00,-0.07,2.81,0.43,-5.25
35220,0.20,1.00,-0.08,2.81,0.73,-5.25
35240,0.19,1.00,-0.09,2.38,2.26,-5.92
35260,0.19,0.99,-0.09,1.34,0.98,-6.16
35280,0.20,0.99,-0.10,0.73,0.43,-6.53
35300,0.17,1.00,-0.09,0.00,-0.79,-7.63
35320,0.18,0.99,-0.09,-2.32,-3.60,-6.90
35340,0.17,1.01,-0.07,-1.46,-5.00,-6.41
35360,0.16,1.01,-0.07,-0.06,-5.19,-4.76
35380,0.16,1.00,-0.08,-0.55,-4.58,-2.62
35400,0.18,1.00,-0.08,-1.46,-5.37,-1.22
35420,0.18,1.00,-0.08,-1.16,-4.70,-0.67
35440,0.18,1.01,-0.07,-0.73,-3.17,-0.92
35460,0.18,1.00,-0.08,0.18,-1.22,-0.12
35480,0.19,1.00,-0.08,1.10,0.85,0.37
35500,0.18,1.00,-0.08,1.77,2.69,0.43
35520,0.17,1.00,-0.07,2.38,3.11,1.53
35540,0.18,1.00,-0.08,3.66,3.11,2.14
35560,0.19,1.00,-0.09,6.04,6.10,1.95
35580,0.17,1.00,-0.08,7.45,8.42,1.77
35600,0.18,1.00,-0.10,7.63,9.83,2.50
35620,0.18,1.00,-0.09,8.18,10.93,3.48
35640,0.17,1.02,-0.08,11.41,12.63,4.94
35660,0.20,0.98,-0.14,12.63,13.61,5.98
35680,0.19,0.99,-0.13,11.11,10.44,4.46
35700,0.17,1.00,-0.14,11.23,10.56,5.98
35720,0.18,1.00,-0.12,8.97,7.75,8.42
35740,0.20,1.00,-0.13,10.44,8.73,8.85
35760,0.23,0.96,-0.18,12.94,12.88,7.63
35780,0.20,1.00,-0.14,11.11,11.05,4.52
35800,0.21,0.98,-0.17,13.55,11.66,4.39
35820,0.20,1.00,-0.15,14.71,9.16,5.92
35840,0.22,0.96,-0.20,14.10,8.91,6.77
35860,0.21,0.98,-0.18,11.41,6.71,5.13
35880,0.22,0.96,-0.20,8.48,5.74,3.60
35900,0.21,0.97,-0.21,6.35,4.52,2.81
35920,0.21,0.97,-0.19,2.56,4.33,2.50
35940,0.19,1.01,-0.15,4.15,2.20,3.30
35960,0.21,1.00,-0.17,6.90,1.77,6.77
35980,0.22,0.97,-0.19,8.48,1.46,8.61
36000,0.24,0.94,-0.23,7.87,3.36,7.69
36020,0.24,0.93,-0.23,5.25,4.27,4.64
36040,0.24,0.96,-0.22,2.08,3.42,2.81
36060,0.23,0.97,-0.20,0.49,2.62,2.56
36080,0.24,0.95,-0.22,-0.55,2.81,2.20
36100,0.24,0.96,-0.21,-1.59,2.75,1.16
36120,0.23,0.97,-0.20,-2.14,2.38,0.31
36140,0.24,0.96,-0.21,-1.71,2.32,-0.31
36160,0.23,0.97,-0.21,-1.83,2.26,-0.98
36180,0.23,0.97,-0.20,-1.53,1.89,-1.46
36200,0.23,0.96,-0.21,-0.06,2.20,-1.53
36220,0.22,0.98,-0.21,-0.49,2.14,-1.71
36240,0.23,0.97,-0.21,-0.85,1.40,-0.85
36260,0.23,0.96,-0.22,-1.22,1.40,-0.85