timestamp,accX,accY,accZ,gyrX,gyrY,gyrZ
0,0.16,0.98,-0.21,-3.23,-0.73,-0.92
20,0.16,0.98,-0.21,-3.54,-0.92,-1.22
40,0.16,0.98,-0.21,-3.85,-0.73,-1.89
60,0.16,0.98,-0.21,-4.15,-0.73,-2.56
80,0.14,0.99,-0.20,-3.78,-1.16,-2.26
100,0.15,0.99,-0.20,-4.15,-1.95,-0.92
120,0.16,0.98,-0.21,-4.09,-1.34,-0.73
140,0.16,0.98,-0.21,-4.64,-0.98,-1.34
160,0.15,0.98,-0.20,-5.43,-0.98,-1.65
180,0.16,0.98,-0.20,-5.49,-1.28,-1.65
200,0.15,0.99,-0.20,-4.39,-0.55,-2.75
220,0.16,0.98,-0.20,-4.39,0.31,-3.11
240,0.16,0.98,-0.20,-6.04,-0.98,-2.62
260,0.15,0.99,-0.18,-6.04,-1.34,-3.23
280,0.14,0.99,-0.18,-5.25,-1.77,-2.75
300,0.14,0.98,-0.19,-5.25,-1.89,-1.89
320,0.15,0.98,-0.19,-6.59,-2.08,-1.10
340,0.16,0.99,-0.18,-5.74,-1.34,-1.77
360,0.15,0.99,-0.17,-4.76,-1.04,-2.62
380,0.15,0.99,-0.18,-2.69,-0.18,-3.05
400,0.15,0.99,-0.18,-2.44,0.92,-4.52
420,0.16,1.00,-0.17,-2.50,0.85,-5.13
440,0.14,0.99,-0.17,-1.89,0.12,-3.97
460,0.14,0.99,-0.18,-1.53,-1.28,-2.50
480,0.15,0.99,-0.18,-1.10,-0.37,-1.53
500,0.15,0.99,-0.18,-0.31,0.24,-1.59
520,0.15,0.99,-0.18,-0.37,0.06,-1.71
540,0.15,0.99,-0.18,-0.55,0.43,-2.32
560,0.13,1.00,-0.18,-0.37,0.06,-2.01
580,0.14,0.99,-0.18,0.24,-1.83,1.10
600,0.15,0.99,-0.18,0.79,-1.28,1.77
620,0.15,0.98,-0.19,0.00,-0.73,1.28
640,0.15,0.99,-0.19,-1.65,-0.24,0.31
660,0.14,0.99,-0.18,-2.75,-0.18,0.18
680,0.14,1.00,-0.18,-3.23,-0.79,0.55
700,0.15,0.99,-0.18,-4.33,-1.28,1.83
720,0.15,0.99,-0.18,-4.76,-1.34,1.89
740,0.15,0.99,-0.17,-5.07,-1.04,1.89
760,0.16,0.99,-0.17,-5.25,-0.24,1.28
780,0.14,1.00,-0.17,-4.88,-0.55,1.71
800,0.14,1.00,-0.17,-5.43,-1.46,2.44
820,0.16,1.00,-0.15,-5.25,-2.08,4.94
840,0.15,1.00,-0.16,-5.31,-1.40,5.80
860,0.14,1.00,-0.16,-6.53,-1.95,7.14
880,0.15,1.01,-0.17,-7.81,-3.17,11.72
900,0.15,1.02,-0.14,-9.28,-6.04,16.24
920,0.16,1.03,-0.13,-8.85,-6.35,20.63
940,0.18,1.02,-0.16,-7.87,-7.75,22.95
960,0.20,1.02,-0.19,-7.57,-10.44,23.50
980,0.18,1.08,-0.18,-9.16,-11.84,24.54
1000,0.20,1.12,-0.19,-11.23,-12.33,27.10
1020,0.19,1.07,-0.25,-14.65,-10.38,32.65
1040,0.21,1.07,-0.20,-19.17,-12.57,35.28
1060,0.23,1.04,-0.16,-23.19,-13.00,37.66
1080,0.26,1.01,-0.08,-25.82,-14.10,39.86
1100,0.26,1.03,-0.05,-24.90,-13.49,41.26
1120,0.27,1.04,-0.06,-22.64,-13.61,44.01
1140,0.33,0.98,-0.07,-21.91,-13.43,50.78
1160,0.37,0.88,-0.07,-21.91,-11.78,50.72
1180,0.40,0.85,-0.04,-23.19,-9.77,48.28
1200,0.43,0.80,-0.02,-21.30,-8.97,40.53
1220,0.43,0.77,-0.04,-18.19,-6.84,35.71
1240,0.49,0.76,0.05,-13.98,-12.27,28.26
1260,0.51,0.75,0.08,-7.69,-6.84,15.99
1280,0.50,0.77,0.05,-3.30,-4.46,6.84
1300,0.48,0.84,0.03,0.85,-2.38,0.31
1320,0.47,0.87,0.03,3.97,-2.20,-6.53
1340,0.48,0.84,0.02,7.75,0.61,-11.60
1360,0.46,0.85,0.01,9.34,3.11,-16.72
1380,0.44,0.87,-0.02,9.40,4.52,-20.63
1400,0.43,0.91,-0.04,10.19,4.58,-24.29
1420,0.41,0.94,-0.03,10.99,4.58,-25.27
1440,0.39,0.96,-0.01,11.05,4.33,-25.21
1460,0.39,0.92,-0.05,11.23,5.74,-24.60
1480,0.40,0.88,-0.07,10.56,6.35,-25.94
1500,0.39,0.91,-0.10,9.46,7.32,-29.60
1520,0.33,0.94,0.00,10.01,6.96,-32.29
1540,0.29,1.04,0.00,13.37,7.02,-31.01
1560,0.29,1.06,-0.02,15.63,4.94,-25.45
1580,0.32,0.92,-0.17,16.05,9.16,-19.35
1600,0.37,0.86,-0.25,9.89,12.27,-23.25
1620,0.29,0.93,-0.14,3.36,9.83,-30.33
1640,0.21,1.12,0.02,6.41,1.53,-23.62
1660,0.27,1.05,-0.08,10.44,3.30,-16.17
1680,0.31,0.96,-0.18,9.83,5.49,-15.56
1700,0.32,0.89,-0.19,5.86,9.83,-22.77
1720,0.17,1.06,-0.13,0.12,11.47,-25.94
1740,0.19,1.15,-0.12,1.04,1.53,-16.17
1760,0.22,1.11,-0.14,1.71,1.22,-7.14
1780,0.25,1.00,-0.17,0.61,1.89,-1.71
1800,0.26,0.96,-0.14,-0.43,2.01,-1.22
1820,0.28,0.92,-0.12,-2.50,2.26,-2.50
1840,0.28,0.90,-0.06,-2.87,4.52,-9.52
1860,0.26,0.93,-0.07,-2.32,6.47,-14.16
1880,0.24,0.96,-0.10,-1.04,6.84,-15.75
1900,0.26,0.94,-0.14,-1.22,7.63,-18.55
1920,0.23,0.97,-0.18,-3.30,9.16,-22.16
1940,0.24,0.97,-0.17,-6.47,10.19,-24.84
1960,0.06,1.15,-0.08,-4.58,12.21,-25.76
1980,0.13,1.10,-0.06,0.37,-0.55,-12.08
2000,0.19,1.01,-0.12,-0.12,1.46,-5.19
2020,0.20,0.99,-0.12,-1.40,2.69,-5.00
2040,0.20,0.98,-0.12,-0.92,3.85,-5.68
2060,0.20,0.98,-0.13,-1.04,3.91,-7.02
2080,0.20,0.98,-0.13,-1.46,4.15,-9.52
2100,0.17,1.00,-0.12,-0.79,5.62,-11.72
2120,0.15,1.01,-0.10,0.43,3.42,-10.50
2140,0.16,1.01,-0.11,1.16,1.83,-5.86
2160,0.18,1.00,-0.11,1.65,3.11,-3.30
2180,0.17,1.00,-0.12,1.89,4.46,-3.78
2200,0.17,1.00,-0.12,2.08,4.09,-3.23
2220,0.16,1.00,-0.12,1.40,6.35,-3.17
2240,0.14,1.01,-0.12,0.73,4.39,-2.14
2260,0.16,1.00,-0.13,-0.06,0.73,0.00
2280,0.17,1.00,-0.13,-0.43,1.34,0.18
2300,0.17,0.99,-0.14,-0.24,1.89,-0.12
2320,0.16,1.00,-0.13,-1.71,1.95,-0.79
2340,0.16,1.00,-0.13,-3.23,1.04,-0.37
2360,0.15,1.00,-0.13,-4.21,-0.24,0.73
2380,0.16,1.00,-0.12,-5.74,-2.44,1.89
2400,0.16,1.00,-0.12,-6.84,-2.44,2.38
2420,0.15,1.00,-0.11,-8.67,-2.75,2.99
2440,0.16,1.01,-0.11,-9.77,-3.97,4.88
2460,0.17,1.00,-0.10,-9.83,-3.54,7.57
2480,0.18,1.01,-0.10,-8.73,-2.93,9.22
2500,0.17,1.01,-0.09,-7.14,-1.71,10.93
2520,0.19,1.01,-0.10,-5.80,-1.04,14.53
2540,0.18,1.05,-0.14,-5.49,-3.05,18.86
2560,0.19,1.07,-0.15,-7.45,-5.07,23.01
2580,0.20,1.07,-0.18,-10.31,-4.82,26.43
2600,0.19,1.12,-0.16,-19.23,-3.91,30.58
2620,0.18,1.14,-0.17,-25.57,-2.50,36.07
2640,0.20,1.13,-0.12,-30.46,-5.25,43.21
2660,0.24,1.06,-0.08,-35.10,-6.47,51.45
2680,0.29,0.95,-0.06,-36.74,-6.23,54.75
2700,0.31,0.93,-0.02,-38.02,-5.13,55.85
2720,0.36,0.89,0.03,-36.01,-4.76,54.02
2740,0.38,0.88,0.05,-33.26,-3.17,50.60
2760,0.41,0.86,0.08,-28.50,-3.97,46.94
2780,0.45,0.81,0.10,-19.71,-2.56,38.51
2800,0.48,0.83,0.13,-13.92,-2.38,31.56
2820,0.48,0.81,0.13,-8.12,-2.44,25.33
2840,0.46,0.80,0.12,-0.73,-2.50,16.66
2860,0.47,0.85,0.08,1.89,-0.67,10.74
2880,0.48,0.85,0.04,3.17,0.37,7.20
2900,0.48,0.85,0.00,2.69,1.22,1.46
2920,0.49,0.81,0.02,2.62,1.16,-3.17
2940,0.47,0.83,0.05,2.87,2.08,-9.16
2960,0.47,0.87,0.09,4.70,2.32,-15.69
2980,0.48,0.83,0.12,10.68,3.05,-19.41
3000,0.47,0.79,0.10,16.11,5.98,-25.45
3020,0.42,0.87,0.03,20.08,7.14,-31.74
3040,0.39,0.94,-0.03,23.01,3.42,-34.00
3060,0.39,0.95,-0.03,22.03,2.01,-33.57
3080,0.38,0.92,0.01,22.71,1.16,-34.55
3100,0.35,0.96,0.04,26.37,5.07,-37.17
3120,0.32,0.97,-0.01,30.52,6.29,-35.64
3140,0.33,0.94,-0.08,30.82,8.67,-32.23
3160,0.31,0.97,-0.13,22.83,9.70,-33.33
3180,0.32,0.92,-0.11,17.88,10.56,-33.75
3200,0.24,1.04,-0.09,16.54,10.74,-34.61
3220,0.27,0.99,-0.08,16.78,7.69,-28.63
3240,0.29,0.97,-0.10,15.20,11.41,-30.21
3260,0.31,0.98,-0.15,11.96,14.89,-33.51
3280,0.23,1.05,-0.18,10.19,21.61,-36.25
3300,0.11,1.21,-0.29,13.37,19.59,-27.28
3320,0.23,1.02,-0.22,11.84,7.75,-17.33
3340,0.25,1.00,-0.18,3.91,9.83,-17.88
3360,0.18,1.04,-0.09,1.89,10.93,-17.94
3380,0.14,1.04,-0.08,3.05,9.09,-14.89
3400,0.16,1.00,-0.16,2.20,4.33,-7.32
3420,0.21,0.98,-0.15,-7.39,-1.77,-6.41
3440,0.20,1.00,-0.12,-6.35,-1.40,-7.14
3460,0.20,0.99,-0.12,-2.99,-0.31,-6.29
3480,0.19,0.99,-0.12,-0.55,1.46,-6.96
3500,0.18,0.99,-0.13,-0.67,2.26,-7.20
3520,0.16,1.01,-0.13,-1.53,1.40,-6.23
3540,0.19,0.99,-0.14,-4.09,-1.40,-3.11
3560,0.19,0.99,-0.13,-3.85,-1.34,-3.05
3580,0.19,1.00,-0.12,-3.36,-0.61,-3.60
3600,0.19,0.99,-0.13,-2.01,0.61,-4.21
3620,0.18,0.99,-0.13,-1.89,0.85,-5.19
3640,0.18,0.99,-0.13,-2.14,0.92,-5.31
3660,0.16,1.00,-0.12,-2.32,-0.31,-4.39
3680,0.18,1.00,-0.13,-1.83,-0.61,-2.50
3700,0.18,1.00,-0.12,-1.83,0.00,-2.26
3720,0.18,1.00,-0.12,-1.22,1.16,-1.71
3740,0.18,1.00,-0.12,-0.85,0.98,-1.53
3760,0.17,1.00,-0.12,-0.55,1.22,-0.92
3780,0.17,1.00,-0.13,-0.67,0.31,0.06
3800,0.18,0.99,-0.13,-1.53,0.18,0.06
3820,0.17,1.00,-0.12,-2.26,0.06,-0.24
3840,0.18,0.99,-0.13,-2.38,0.00,-0.31
3860,0.17,1.00,-0.12,-2.38,0.00,-0.67
3880,0.17,1.00,-0.12,-2.26,0.06,-0.06
3900,0.17,1.00,-0.12,-2.08,0.12,0.24
3920,0.18,1.00,-0.12,-1.89,0.12,0.61
3940,0.18,1.00,-0.12,-1.95,0.24,0.61
3960,0.18,1.00,-0.12,-1.77,0.79,0.49
3980,0.18,1.00,-0.12,-1.53,0.37,1.10
4000,0.17,1.00,-0.12,-1.65,0.67,1.28
4020,0.18,1.00,-0.12,-2.20,0.00,1.95
4040,0.17,1.00,-0.12,-3.11,0.37,2.01
4060,0.17,1.00,-0.11,-3.30,0.00,2.20
4080,0.17,1.00,-0.11,-3.54,-0.73,3.23
4100,0.17,1.01,-0.10,-3.23,-0.92,6.10
4120,0.18,1.02,-0.09,-2.14,-1.34,9.58
4140,0.19,1.01,-0.11,-0.79,-0.49,13.43
4160,0.18,1.00,-0.13,0.67,-1.28,14.77
4180,0.19,1.02,-0.15,-1.89,-1.40,16.72
4200,0.20,1.03,-0.15,-2.69,-2.75,18.62
4220,0.20,1.06,-0.14,-5.25,-3.36,20.14
4240,0.23,1.06,-0.13,-8.24,-3.72,22.34
4260,0.22,1.05,-0.16,-8.61,-2.87,25.51
4280,0.23,1.04,-0.15,-11.23,-3.78,28.02
4300,0.24,1.04,-0.13,-16.48,-3.97,29.91
4320,0.24,1.04,-0.11,-18.68,-4.21,32.17
4340,0.27,1.01,-0.09,-20.08,-4.70,35.52
4360,0.30,0.97,-0.08,-22.34,-4.15,37.60
4380,0.32,0.95,-0.08,-24.60,-3.05,37.29
4400,0.33,0.95,-0.04,-24.41,-3.05,36.93
4420,0.37,0.91,-0.02,-21.12,-2.99,37.78
4440,0.39,0.87,-0.01,-18.86,-3.60,35.89
4460,0.41,0.87,0.02,-16.30,-2.81,32.47
4480,0.43,0.83,0.03,-11.23,-1.83,24.84
4500,0.45,0.84,0.04,-8.36,-3.97,19.10
4520,0.45,0.83,0.03,-4.46,-2.14,14.40
4540,0.46,0.82,0.02,-0.73,-0.67,5.07
4560,0.46,0.83,0.00,1.59,1.16,0.24
4580,0.45,0.85,-0.00,3.17,2.01,-5.31
4600,0.44,0.86,-0.00,6.41,2.14,-12.21
4620,0.42,0.90,-0.01,7.93,2.87,-15.56
4640,0.41,0.92,0.01,9.77,2.81,-17.88
4660,0.39,0.95,-0.00,11.60,3.23,-17.70
4680,0.38,0.95,-0.04,14.04,3.91,-17.09
4700,0.40,0.92,-0.06,14.10,3.91,-16.36
4720,0.40,0.90,-0.07,14.04,4.76,-17.94
4740,0.36,0.95,0.00,15.63,4.64,-20.57
4760,0.36,0.94,-0.01,18.55,3.91,-19.71
4780,0.36,0.91,-0.08,20.26,5.25,-18.86
4800,0.35,0.91,-0.13,17.21,8.97,-23.32
4820,0.35,0.91,-0.12,13.67,9.34,-26.25
4840,0.32,0.93,-0.08,11.90,9.28,-28.93
4860,0.31,0.95,-0.09,13.06,8.30,-28.99
4880,0.29,0.94,-0.11,13.43,9.89,-30.03
4900,0.28,0.99,-0.11,12.88,12.45,-32.59
4920,0.28,0.99,-0.15,12.08,15.87,-33.75
4940,0.29,1.01,-0.22,10.44,19.35,-34.61
4960,0.32,1.00,-0.36,6.59,24.60,-36.50
4980,0.20,1.14,-0.31,-1.28,21.61,-40.65
5000,0.08,1.19,-0.07,2.38,10.31,-26.06
5020,0.14,1.04,-0.14,-0.37,3.17,-10.44
5040,0.19,1.00,-0.15,-9.16,-1.04,-6.04
5060,0.22,0.98,-0.13,-9.40,0.73,-7.08
5080,0.21,0.98,-0.14,-7.14,0.24,-8.91
5100,0.21,0.98,-0.14,-4.82,0.55,-9.70
5120,0.19,0.99,-0.13,-3.85,1.22,-11.23
5140,0.17,1.00,-0.12,-3.97,0.37,-10.25
5160,0.18,1.00,-0.13,-4.03,-0.92,-8.00
5180,0.19,1.00,-0.13,-4.15,-1.10,-6.84
5200,0.18,1.00,-0.12,-3.72,-0.79,-6.23
5220,0.19,0.99,-0.13,-2.69,0.43,-5.49
5240,0.18,1.00,-0.13,-2.87,1.04,-5.43
5260,0.18,1.00,-0.12,-1.53,1.53,-4.94
5280,0.18,0.99,-0.13,0.24,2.69,-4.52
5300,0.17,1.00,-0.12,0.61,3.66,-5.25
5320,0.15,1.00,-0.12,0.85,3.30,-4.82
5340,0.16,1.00,-0.13,0.00,1.16,-2.81
5360,0.17,1.00,-0.13,-0.67,0.92,-1.95
5380,0.17,1.00,-0.13,-1.04,1.22,-2.14
5400,0.17,0.99,-0.13,-1.53,1.28,-2.20
5420,0.17,1.00,-0.13,-2.01,1.28,-2.75
5440,0.16,1.00,-0.12,-2.56,0.61,-2.81
5460,0.16,1.00,-0.12,-1.89,0.12,-2.38
5480,0.17,1.00,-0.13,-0.67,0.43,-1.28
5500,0.16,1.00,-0.13,-1.28,0.73,-1.16
5520,0.16,1.00,-0.13,-1.59,0.61,-0.61
5540,0.16,1.00,-0.12,-1.46,0.18,0.18
5560,0.17,0.99,-0.13,-0.98,0.00,0.73
5580,0.16,1.00,-0.13,-0.79,0.24,0.12
5600,0.16,1.00,-0.13,-1.46,0.24,0.43
5620,0.17,0.99,-0.13,-1.65,-0.31,1.16
5640,0.16,1.00,-0.13,-2.08,-0.24,1.04
5660,0.16,1.00,-0.13,-1.83,-0.79,1.40
5680,0.17,1.00,-0.12,-1.53,-0.92,2.01
5700,0.17,1.00,-0.12,-0.49,-0.37,2.26
5720,0.17,1.00,-0.13,-0.55,-0.24,2.50
5740,0.17,1.00,-0.12,-1.83,0.12,2.38
5760,0.17,1.00,-0.12,-1.10,0.18,2.50
5780,0.18,1.00,-0.13,-0.43,0.24,2.69
5800,0.18,1.00,-0.13,-0.43,0.85,3.11
5820,0.19,0.99,-0.13,-0.18,1.34,3.11
5840,0.19,0.99,-0.13,0.06,1.83,2.93
5860,0.18,0.99,-0.13,-0.12,1.28,3.11
5880,0.18,1.00,-0.13,-0.43,0.92,3.17
5900,0.18,0.99,-0.13,-0.73,0.73,3.54
5920,0.19,0.99,-0.13,-1.83,0.24,2.75
5940,0.19,0.99,-0.13,-2.87,-0.24,2.56
5960,0.19,1.00,-0.13,-3.60,-1.22,2.87
5980,0.20,1.00,-0.12,-4.58,-1.83,3.05
6000,0.20,1.00,-0.12,-3.97,-1.34,3.05
6020,0.19,1.00,-0.12,-3.17,-1.46,3.60
6040,0.19,1.00,-0.12,-2.62,-1.83,5.07
6060,0.20,1.00,-0.13,-3.42,-2.56,7.20
6080,0.18,1.04,-0.14,-2.93,-3.23,9.40
6100,0.20,1.02,-0.13,-3.85,-4.33,13.06
6120,0.22,1.02,-0.12,-2.93,-3.60,15.63
6140,0.23,1.01,-0.11,-3.42,-3.05,16.42
6160,0.24,1.00,-0.11,-2.56,-1.89,16.78
6180,0.25,0.98,-0.13,-2.20,-1.46,16.54
6200,0.26,0.97,-0.13,-2.50,-1.46,15.44
6220,0.27,0.96,-0.12,-3.42,-1.65,14.04
6240,0.26,0.98,-0.12,-4.58,-1.77,12.76
6260,0.26,0.99,-0.12,-5.07,-1.59,12.21
6280,0.28,0.97,-0.11,-5.37,-2.14,12.45
6300,0.28,0.98,-0.11,-5.62,-1.71,12.57
6320,0.28,0.99,-0.11,-6.04,-1.89,13.18
6340,0.28,0.98,-0.10,-6.53,-1.65,13.98
6360,0.28,1.01,-0.11,-6.47,-1.77,14.77
6380,0.29,1.00,-0.10,-6.77,-3.05,17.58
6400,0.30,1.00,-0.10,-7.51,-3.60,18.92
6420,0.29,1.02,-0.10,-8.12,-3.36,20.26
6440,0.32,1.00,-0.09,-9.58,-5.37,23.86
6460,0.33,0.97,-0.10,-10.74,-4.46,25.09
6480,0.35,0.94,-0.09,-12.33,-4.09,24.84
6500,0.37,0.92,-0.07,-14.10,-3.17,23.19
6520,0.39,0.90,-0.05,-14.40,-2.69,21.97
6540,0.38,0.91,-0.05,-13.79,-1.59,20.02
6560,0.40,0.90,-0.04,-12.21,-1.46,18.01
6580,0.41,0.89,-0.03,-11.35,-1.40,15.81
6600,0.41,0.90,-0.03,-10.25,-0.73,14.04
6620,0.42,0.89,-0.03,-8.85,0.37,11.35
6640,0.41,0.92,-0.03,-7.93,-0.18,10.74
6660,0.40,0.95,-0.03,-7.39,-0.85,10.80
6680,0.42,0.95,-0.04,-8.61,-0.12,12.08
6700,0.41,0.95,-0.04,-9.70,0.18,13.18
6720,0.41,0.96,-0.04,-11.78,-0.06,14.59
6740,0.42,0.94,-0.04,-13.37,-0.85,16.72
6760,0.44,0.93,-0.03,-15.26,-0.55,16.66
6780,0.44,0.94,-0.01,-16.42,-1.83,17.21
6800,0.45,0.94,0.00,-17.03,-2.08,18.98
6820,0.48,0.90,0.03,-16.11,-2.14,18.43
6840,0.48,0.87,0.04,-14.16,-1.71,16.85
6860,0.49,0.88,0.05,-11.84,-1.59,15.01
6880,0.50,0.85,0.05,-8.24,-0.79,13.18
6900,0.51,0.84,0.04,-6.04,-0.85,9.89
6920,0.52,0.84,0.04,-3.97,-0.49,6.47
6940,0.53,0.81,0.07,-0.37,-0.67,0.79
6960,0.52,0.78,0.08,2.32,0.55,-4.52
6980,0.51,0.82,0.06,4.70,2.14,-9.95
7000,0.51,0.85,0.03,8.67,2.93,-14.95
7020,0.49,0.86,0.01,10.38,3.17,-18.13
7040,0.49,0.89,0.01,11.23,2.99,-20.75
7060,0.49,0.87,0.03,11.84,3.05,-24.11
7080,0.46,0.89,-0.00,13.00,3.54,-25.70
7100,0.45,0.91,0.00,14.47,3.23,-26.37
7120,0.45,0.90,-0.00,16.78,4.52,-26.79
7140,0.44,0.89,-0.02,17.70,5.31,-29.36
7160,0.44,0.88,0.01,18.62,3.54,-31.43
7180,0.40,0.91,-0.02,19.59,4.88,-32.71
7200,0.40,0.91,-0.06,19.65,4.58,-33.33
7220,0.37,0.91,-0.09,19.65,6.16,-34.73
7240,0.35,0.95,-0.05,17.94,6.90,-35.28
7260,0.32,0.98,-0.07,17.21,9.22,-33.57
7280,0.32,0.97,-0.11,14.83,10.99,-32.29
7300,0.31,0.98,-0.15,12.33,12.21,-32.53
7320,0.30,1.00,-0.09,9.40,10.99,-31.98
7340,0.25,1.05,-0.08,8.91,10.93,-30.21
7360,0.27,1.04,-0.10,9.46,9.09,-25.09
7380,0.32,0.93,-0.16,8.85,11.96,-24.05
7400,0.31,0.92,-0.15,5.43,15.20,-29.72
7420,0.22,1.07,-0.13,2.87,16.30,-32.17
7440,0.15,1.07,-0.18,3.54,9.83,-20.63
7460,0.23,1.01,-0.22,1.89,9.16,-16.17
7480,0.27,0.98,-0.19,-3.30,5.74,-15.81
7500,0.25,1.00,-0.12,-7.39,7.20,-18.98
7520,0.18,1.04,-0.08,-3.23,9.46,-19.90
7540,0.15,1.06,-0.08,3.48,5.25,-14.71
7560,0.22,0.98,-0.17,2.75,2.01,-9.34
7580,0.22,0.97,-0.15,-2.50,2.32,-10.62
7600,0.21,0.98,-0.14,-3.05,3.30,-11.72
7620,0.19,1.00,-0.12,-2.44,2.44,-12.76
7640,0.18,1.00,-0.12,-0.61,2.93,-13.49
7660,0.15,1.01,-0.10,-0.98,1.95,-11.96
7680,0.16,1.01,-0.12,-1.53,-0.55,-7.63
7700,0.18,1.00,-0.12,-2.08,-1.10,-4.27
7720,0.18,1.00,-0.12,-1.65,-1.04,-3.11
7740,0.18,1.00,-0.12,-1.16,0.18,-2.50
7760,0.18,0.99,-0.13,-0.24,1.22,-2.50
7780,0.18,0.99,-0.13,-0.55,1.46,-2.44
7800,0.18,0.99,-0.13,-0.49,1.22,-2.93
7820,0.18,1.00,-0.12,-0.55,0.92,-2.50
7840,0.17,1.00,-0.12,-0.55,0.92,-1.89
7860,0.18,0.99,-0.13,0.00,0.92,-1.77
7880,0.18,0.99,-0.13,-0.31,1.16,-1.77
7900,0.18,0.99,-0.13,-0.18,1.59,-1.65
7920,0.18,0.99,-0.13,-0.49,1.83,-2.32
7940,0.17,1.00,-0.13,-0.85,1.83,-2.32
7960,0.17,1.00,-0.13,-1.16,0.73,-1.28
7980,0.17,1.00,-0.13,-1.22,0.37,-0.73
8000,0.18,1.00,-0.13,-1.53,0.49,-0.55
8020,0.17,0.99,-0.13,-1.77,0.43,-0.55
8040,0.17,1.00,-0.13,-2.01,0.55,-0.67
8060,0.17,1.00,-0.13,-2.32,0.00,-0.24
8080,0.17,1.00,-0.13,-2.99,-0.12,0.06
8100,0.18,1.00,-0.12,-2.81,0.06,0.31
8120,0.17,1.00,-0.12,-2.44,0.12,0.37
8140,0.17,1.00,-0.12,-2.50,-0.61,1.40
8160,0.18,1.00,-0.13,-2.62,-0.49,1.65
8180,0.17,1.00,-0.13,-2.99,-0.55,1.71
8200,0.17,1.00,-0.11,-4.58,-1.04,2.14
8220,0.18,1.00,-0.12,-4.52,-1.04,2.62
8240,0.18,1.00,-0.11,-4.64,-1.10,2.99
8260,0.17,1.01,-0.10,-4.39,-1.53,5.07
8280,0.18,1.00,-0.11,-4.09,-1.53,6.65
8300,0.18,1.00,-0.11,-4.03,-1.59,8.06
8320,0.19,1.00,-0.12,-5.49,-1.59,10.56
8340,0.20,1.01,-0.11,-5.00,-2.32,11.41
8360,0.21,1.01,-0.13,-4.76,-2.20,13.18
8380,0.20,1.01,-0.14,-6.23,-3.54,13.00
8400,0.22,1.00,-0.13,-7.75,-2.87,13.92
8420,0.21,1.01,-0.14,-10.25,-1.59,13.85
8440,0.23,1.03,-0.15,-15.14,-1.46,14.34
8460,0.22,1.04,-0.13,-22.89,-0.79,17.21
8480,0.21,1.07,-0.10,-25.88,-1.65,20.14
8500,0.22,1.06,-0.06,-25.94,-4.03,25.51
8520,0.25,1.03,-0.06,-23.56,-4.15,31.13
8540,0.26,1.02,-0.05,-23.86,-3.72,33.02
8560,0.29,0.98,-0.05,-24.84,-3.36,33.94
8580,0.28,1.00,-0.07,-26.98,-2.62,33.81
8600,0.31,0.97,-0.03,-29.11,-4.82,35.64
8620,0.32,0.98,-0.01,-30.27,-4.82,36.56
8640,0.35,0.98,0.07,-26.37,-7.02,39.18
8660,0.37,0.95,0.09,-21.18,-5.62,39.55
8680,0.39,0.92,0.11,-15.56,-4.46,39.00
8700,0.43,0.87,0.11,-7.87,-2.01,33.94
8720,0.47,0.80,0.10,-3.66,-0.67,28.44
8740,0.47,0.78,0.05,-1.34,0.98,21.06
8760,0.48,0.81,0.04,0.00,-2.01,11.05
8780,0.47,0.85,0.06,1.04,-2.26,7.63
8800,0.46,0.87,0.04,2.01,-0.92,2.99
8820,0.46,0.89,0.05,3.30,0.73,-1.59
8840,0.45,0.89,0.08,5.37,1.16,-4.88
8860,0.45,0.89,0.07,7.81,2.08,-7.08
8880,0.44,0.89,0.05,9.95,3.23,-9.03
8900,0.44,0.88,0.02,11.78,3.66,-12.63
8920,0.43,0.88,-0.00,12.27,4.09,-15.50
8940,0.43,0.89,0.01,12.76,3.78,-18.25
8960,0.41,0.90,0.01,14.59,3.60,-21.79
8980,0.39,0.95,-0.00,15.50,3.17,-22.58
9000,0.40,0.93,0.01,17.15,1.83,-22.16
9020,0.39,0.92,-0.01,19.29,3.05,-23.38
9040,0.39,0.89,-0.03,19.90,4.09,-25.09
9060,0.37,0.86,-0.04,18.80,5.19,-28.02
9080,0.36,0.89,-0.05,15.81,8.67,-34.85
9100,0.33,0.91,-0.06,13.73,8.42,-37.23
9120,0.29,0.98,-0.09,11.66,9.70,-37.78
9140,0.30,0.97,-0.08,11.11,7.02,-37.54
9160,0.27,1.02,-0.04,11.47,7.32,-37.35
9180,0.26,1.06,-0.00,14.22,8.85,-36.62
9200,0.28,1.08,-0.07,19.96,14.65,-31.19
9220,0.22,1.04,-0.22,18.49,16.85,-27.22
9240,0.24,1.04,-0.26,12.39,17.33,-25.94
9260,0.20,1.06,-0.20,5.98,16.05,-23.74
9280,0.16,1.06,-0.10,5.62,10.56,-18.62
9300,0.22,1.00,-0.14,5.31,8.06,-13.37
9320,0.23,0.98,-0.16,2.75,9.70,-13.98
9340,0.21,0.99,-0.13,1.16,10.19,-18.25
9360,0.17,1.01,-0.12,2.14,9.46,-20.08
9380,0.14,1.03,-0.11,3.23,6.23,-17.94
9400,0.17,1.00,-0.14,2.14,3.05,-10.74
9420,0.17,1.00,-0.13,-0.06,1.77,-8.42
9440,0.17,1.00,-0.13,-0.67,1.89,-6.84
9460,0.17,1.00,-0.13,-0.06,1.65,-5.13
9480,0.17,1.00,-0.13,1.22,2.26,-4.39
9500,0.17,1.00,-0.13,1.53,2.93,-4.64
9520,0.16,1.00,-0.13,1.83,2.62,-3.72
9540,0.16,1.00,-0.14,1.59,2.20,-2.93
9560,0.16,1.00,-0.14,0.73,1.40,-2.20
9580,0.16,0.99,-0.14,-0.55,0.61,-1.46
9600,0.17,1.00,-0.14,-0.61,0.43,-1.34
9620,0.17,1.00,-0.14,0.43,0.37,-1.04
9640,0.17,0.99,-0.14,0.92,0.92,-1.34
9660,0.16,0.99,-0.14,-0.18,0.85,-1.53
9680,0.17,0.99,-0.14,-0.85,0.73,-1.22
9700,0.16,1.00,-0.14,-1.22,0.79,-1.46
9720,0.17,0.99,-0.14,-0.79,0.67,-1.40
9740,0.17,0.99,-0.14,-0.18,0.98,-1.40
9760,0.17,1.00,-0.14,-0.18,1.04,-1.16
9780,0.16,1.00,-0.14,-0.67,1.10,-1.04
9800,0.16,0.99,-0.14,-1.22,1.10,-0.73
9820,0.16,1.00,-0.14,-1.22,1.04,-0.61
9840,0.16,1.00,-0.14,-1.83,0.92,-0.85
9860,0.16,1.00,-0.14,-1.77,0.73,-1.22
9880,0.16,1.00,-0.14,-2.14,0.85,-1.10
9900,0.16,1.00,-0.14,-2.14,0.67,-1.04
9920,0.16,1.00,-0.14,-2.81,0.43,-1.04
9940,0.16,1.00,-0.13,-2.75,0.12,-0.92
9960,0.16,1.00,-0.13,-2.20,-0.12,-0.24
9980,0.15,1.00,-0.14,-2.38,-0.67,0.61
10000,0.16,1.00,-0.14,-3.54,-1.22,1.46
10020,0.16,1.00,-0.13,-4.52,-2.08,2.08
10040,0.17,1.00,-0.13,-4.94,-2.14,1.95
10060,0.16,1.00,-0.13,-4.94,-2.20,2.01
10080,0.17,0.99,-0.13,-5.37,-2.81,2.50
10100,0.17,1.00,-0.12,-7.14,-3.85,3.11
10120,0.16,1.00,-0.12,-7.87,-4.27,3.91
10140,0.18,1.00,-0.12,-8.67,-5.13,5.68
10160,0.17,1.00,-0.10,-8.73,-4.58,7.63
10180,0.18,1.01,-0.11,-8.54,-3.91,9.46
10200,0.19,1.00,-0.11,-9.16,-4.39,11.11
10220,0.20,0.99,-0.11,-9.46,-4.58,11.72
10240,0.20,1.01,-0.13,-9.22,-3.66,12.33
10260,0.19,1.02,-0.14,-9.58,-3.97,13.18
10280,0.17,1.07,-0.15,-11.96,-5.62,18.01
10300,0.18,1.11,-0.15,-15.08,-6.65,22.89
10320,0.18,1.14,-0.13,-19.35,-6.96,28.44
10340,0.21,1.10,-0.09,-19.96,-5.55,39.37
10360,0.24,1.06,-0.06,-20.20,-5.31,43.27
10380,0.28,1.00,-0.06,-20.32,-3.78,44.62
10400,0.30,0.95,-0.09,-21.85,-2.44,42.72
10420,0.32,0.93,-0.06,-24.90,-1.89,39.98
10440,0.34,0.91,-0.02,-26.37,-2.93,38.21
10460,0.36,0.89,-0.01,-25.21,-2.14,34.67
10480,0.37,0.91,0.03,-22.64,-3.11,32.78
10500,0.39,0.90,0.06,-18.86,-2.93,31.01
10520,0.41,0.90,0.08,-14.04,-3.17,26.25
10540,0.40,0.94,0.09,-6.47,-3.05,24.05
10560,0.43,0.89,0.07,-1.16,-3.60,23.19
10580,0.43,0.88,0.04,2.20,-2.44,20.45
10600,0.45,0.86,0.00,3.23,-1.34,15.01
10620,0.43,0.90,-0.01,2.50,-0.67,11.78
10640,0.44,0.91,-0.01,1.83,-1.28,10.93
10660,0.45,0.90,-0.01,-0.24,-1.10,9.83
10680,0.45,0.90,-0.01,-1.53,-0.79,8.36
10700,0.45,0.91,0.01,-2.32,-0.31,6.96
10720,0.46,0.91,0.04,-2.08,-0.31,6.04
10740,0.46,0.89,0.02,-1.71,0.31,5.07
10760,0.47,0.86,0.03,-1.04,0.61,3.66
10780,0.47,0.85,0.02,0.06,1.53,0.37
10800,0.47,0.87,0.02,0.73,1.89,-2.93
10820,0.46,0.90,0.03,1.53,1.46,-5.86
10840,0.46,0.91,0.04,3.23,1.71,-8.42
10860,0.46,0.88,0.02,4.21,2.81,-10.56
10880,0.46,0.87,0.02,5.07,3.11,-13.43
10900,0.45,0.88,0.02,6.04,4.09,-18.07
10920,0.45,0.88,0.01,7.63,3.60,-20.69
10940,0.44,0.87,-0.00,9.03,4.52,-23.68
10960,0.43,0.89,0.01,9.70,4.52,-27.40
10980,0.41,0.88,0.02,12.02,4.76,-33.08
11000,0.38,0.92,0.00,14.77,4.64,-36.01
11020,0.37,0.95,0.01,16.30,3.36,-35.77
11040,0.39,0.86,-0.09,15.75,6.10,-36.99
11060,0.36,0.86,-0.08,13.73,9.52,-42.48
11080,0.28,1.01,-0.04,12.94,8.54,-43.64
11100,0.28,1.05,-0.05,13.92,5.62,-37.17
11120,0.28,1.00,-0.05,15.26,6.41,-34.00
11140,0.29,0.95,-0.03,16.30,9.40,-34.85
11160,0.21,1.03,-0.07,17.52,13.73,-36.68
11180,0.24,1.12,-0.16,17.52,13.67,-31.49
11200,0.23,1.07,-0.21,15.26,13.92,-25.70
11220,0.26,1.01,-0.23,6.41,11.96,-22.52
11240,0.24,1.00,-0.17,-1.16,11.41,-23.56
11260,0.09,1.13,-0.08,-2.20,11.35,-22.64
11280,0.17,1.07,-0.07,5.55,2.26,-7.63
11300,0.23,0.98,-0.14,3.17,2.50,-6.65
11320,0.24,0.96,-0.14,0.79,4.21,-9.09
11340,0.24,0.95,-0.14,0.67,6.16,-14.34
11360,0.19,1.00,-0.13,2.50,9.83,-19.71
11380,0.09,1.07,-0.06,7.14,6.65,-19.53
11400,0.15,1.03,-0.11,5.98,-0.98,-9.77
11420,0.18,1.00,-0.13,-0.49,-0.55,-6.47
11440,0.18,1.00,-0.12,-0.92,0.18,-5.31
11460,0.18,1.00,-0.13,-0.31,1.83,-4.64
11480,0.19,0.99,-0.13,-1.04,1.53,-4.70
11500,0.19,0.99,-0.13,-1.28,2.81,-5.43
11520,0.18,0.99,-0.13,-1.34,3.72,-7.02
11540,0.17,1.00,-0.13,0.18,4.39,-8.73
11560,0.15,1.00,-0.11,0.31,4.52,-8.61
11580,0.14,1.00,-0.12,0.98,3.85,-7.20
11600,0.15,1.00,-0.12,0.24,2.87,-4.03
11620,0.15,1.00,-0.12,0.12,2.44,-2.87
11640,0.15,1.00,-0.13,0.24,2.20,-1.71
11660,0.16,1.00,-0.13,0.18,1.65,-1.10
11680,0.16,0.99,-0.13,0.12,1.65,-1.16
11700,0.16,1.00,-0.13,-0.55,1.53,-1.16
11720,0.16,1.00,-0.13,-0.85,0.79,-1.71
11740,0.16,1.00,-0.13,-0.92,0.79,-1.89
11760,0.15,1.00,-0.13,-1.10,0.49,-1.77
11780,0.15,1.00,-0.13,-1.16,0.61,-1.53
11800,0.15,1.00,-0.13,-0.98,0.73,-1.10
11820,0.15,1.00,-0.13,-1.22,0.85,-0.98
11840,0.15,1.00,-0.13,-1.34,0.92,-0.79
11860,0.15,1.00,-0.13,-0.24,0.85,-0.73
11880,0.15,1.00,-0.13,-0.18,0.73,-0.55
11900,0.16,1.00,-0.13,-0.61,0.61,-0.31
11920,0.16,1.00,-0.13,-0.43,0.73,-0.31
11940,0.16,1.00,-0.13,-1.10,0.79,-0.73
11960,0.16,1.00,-0.13,-1.28,0.55,-0.61
11980,0.15,1.00,-0.13,-0.49,0.43,-0.49
12000,0.15,1.00,-0.14,-0.85,0.37,-0.31
12020,0.16,1.00,-0.14,-1.46,0.43,-0.43
12040,0.15,1.00,-0.13,-2.08,0.55,-0.61
12060,0.16,1.00,-0.13,-2.01,0.73,-0.49
12080,0.15,1.00,-0.13,-1.89,0.55,-0.43
12100,0.15,1.00,-0.13,-1.83,0.31,0.12
12120,0.15,1.00,-0.13,-1.28,0.24,0.49
12140,0.15,1.00,-0.13,-1.71,0.00,0.61
12160,0.15,1.00,-0.13,-2.01,-0.31,1.28
12180,0.15,1.00,-0.12,-2.75,-1.22,1.83
12200,0.15,1.00,-0.13,-2.50,-1.53,2.08
12220,0.16,1.00,-0.13,-2.75,-1.59,2.32
12240,0.15,1.00,-0.12,-3.23,-1.40,2.62
12260,0.15,1.00,-0.12,-4.15,-2.26,3.60
12280,0.16,1.00,-0.13,-5.19,-3.30,5.43
12300,0.16,1.00,-0.12,-7.08,-3.85,7.39
12320,0.15,1.01,-0.11,-7.63,-4.58,9.28
12340,0.16,1.02,-0.11,-8.54,-5.49,13.00
12360,0.19,1.01,-0.12,-8.61,-4.27,16.24
12380,0.18,1.03,-0.12,-8.24,-3.23,18.31
12400,0.17,1.06,-0.12,-8.00,-4.33,21.61
12420,0.17,1.11,-0.13,-4.09,-8.36,29.30
12440,0.18,1.16,-0.16,-3.54,-5.80,33.51
12460,0.18,1.15,-0.15,-6.65,-6.65,39.25
12480,0.22,1.08,-0.15,-10.62,-5.98,46.57
12500,0.26,1.02,-0.15,-14.34,-6.23,47.00
12520,0.28,1.00,-0.12,-17.70,-7.08,47.18
12540,0.30,0.94,-0.10,-21.97,-8.61,45.90
12560,0.33,0.92,-0.05,-23.68,-8.00,44.37
12580,0.38,0.91,-0.01,-24.66,-7.08,43.40
12600,0.34,0.95,-0.02,-22.40,-3.17,42.24
12620,0.39,0.88,-0.01,-18.98,-4.33,41.38
12640,0.42,0.85,0.02,-16.17,-6.47,37.60
12660,0.44,0.84,0.02,-13.12,-5.80,34.48
12680,0.46,0.83,0.01,-9.46,-4.03,27.22
12700,0.47,0.83,0.02,-7.45,-3.42,22.34
12720,0.48,0.83,0.01,-5.31,-3.17,17.70
12740,0.48,0.86,0.01,-3.11,-2.20,12.21
12760,0.48,0.86,-0.00,-1.89,-0.67,9.03
12780,0.47,0.88,-0.02,-1.16,0.61,6.23
12800,0.46,0.91,-0.01,-1.65,0.37,4.33
12820,0.46,0.92,-0.00,-2.38,0.06,3.72
12840,0.47,0.90,0.01,-2.26,-0.61,3.36
12860,0.47,0.88,0.02,-1.34,0.18,2.38
12880,0.48,0.87,0.02,-0.37,1.22,1.34
12900,0.49,0.87,0.01,0.49,1.77,-0.67
12920,0.48,0.87,-0.00,1.28,1.89,-4.21
12940,0.48,0.87,-0.01,1.40,2.14,-6.90
12960,0.48,0.88,-0.00,1.22,2.32,-9.46
12980,0.48,0.87,0.01,1.34,2.87,-13.24
13000,0.48,0.85,0.05,3.42,3.78,-16.42
13020,0.47,0.85,0.03,5.55,5.43,-20.69
13040,0.46,0.85,0.00,8.12,5.19,-26.31
13060,0.43,0.89,-0.02,10.62,5.13,-29.30
13080,0.42,0.91,-0.03,11.41,4.58,-31.19
13100,0.41,0.92,-0.02,11.66,3.97,-32.65
13120,0.40,0.90,-0.02,13.06,3.91,-34.42
13140,0.37,0.94,-0.05,13.24,3.78,-35.64
13160,0.36,0.93,-0.08,11.54,3.66,-35.22
13180,0.35,0.93,-0.08,8.79,4.82,-35.89
13200,0.32,0.97,-0.06,6.96,5.55,-37.48
13220,0.29,0.99,-0.02,7.45,4.27,-35.95
13240,0.28,1.02,-0.05,10.86,4.21,-31.56
13260,0.30,0.97,-0.09,11.54,5.43,-28.99
13280,0.29,0.95,-0.13,8.85,8.54,-30.64
13300,0.27,0.97,-0.12,3.48,8.06,-34.06
13320,0.25,1.05,-0.10,2.50,5.49,-31.68
13340,0.25,1.03,-0.12,3.17,7.02,-28.99
13360,0.24,1.04,-0.10,2.62,11.11,-27.59
13380,0.17,1.10,-0.11,4.82,12.02,-24.90
13400,0.19,1.04,-0.15,8.73,11.47,-18.92
13420,0.23,1.00,-0.16,7.63,7.51,-14.65
13440,0.21,1.00,-0.14,3.91,9.40,-15.87
13460,0.23,1.00,-0.11,4.03,9.52,-17.15
13480,0.20,1.01,-0.10,5.86,11.90,-18.07
13500,0.15,1.02,-0.10,9.40,9.52,-15.26
13520,0.16,1.01,-0.12,7.20,7.26,-12.02
13540,0.17,1.00,-0.13,4.27,5.55,-10.01
13560,0.17,1.00,-0.13,1.04,4.15,-8.36
13580,0.16,1.00,-0.12,1.10,4.03,-8.00
13600,0.17,1.00,-0.12,1.89,4.21,-7.57
13620,0.16,1.00,-0.12,1.89,4.15,-6.77
13640,0.16,1.00,-0.13,2.38,4.03,-5.49
13660,0.15,1.00,-0.13,1.65,3.17,-4.33
13680,0.16,1.00,-0.13,1.46,2.44,-2.50
13700,0.16,1.00,-0.14,1.77,2.44,-1.83
13720,0.16,1.00,-0.14,1.71,1.89,-1.28
13740,0.16,0.99,-0.14,1.46,1.83,-1.28
13760,0.16,0.99,-0.14,1.22,1.65,-1.46
13780,0.16,1.00,-0.14,0.67,1.53,-1.71
13800,0.16,0.99,-0.15,0.43,1.28,-1.89
13820,0.16,1.00,-0.14,0.06,0.92,-1.95
13840,0.16,0.99,-0.15,0.24,1.10,-1.89
13860,0.16,1.00,-0.14,0.12,0.98,-1.95
13880,0.16,1.00,-0.14,-0.18,1.04,-2.08
13900,0.16,1.00,-0.15,0.06,1.10,-1.95
13920,0.15,1.00,-0.15,0.24,1.10,-1.95
13940,0.16,0.99,-0.15,0.06,1.40,-2.01
13960,0.15,0.99,-0.15,-0.43,1.34,-1.77
13980,0.15,1.00,-0.15,-0.55,1.34,-1.83
14000,0.15,1.00,-0.14,-0.92,0.92,-1.40
14020,0.15,1.00,-0.14,-0.85,0.98,-1.04
14040,0.15,1.00,-0.14,-0.55,1.22,-1.22
14060,0.15,1.00,-0.15,-0.73,1.22,-1.10
14080,0.15,1.00,-0.15,-0.92,1.16,-0.73
14100,0.15,1.00,-0.15,-1.10,1.22,-0.49
14120,0.15,1.00,-0.14,-0.73,1.10,-0.12
14140,0.15,0.99,-0.15,-0.73,1.04,0.00
14160,0.15,1.00,-0.15,-0.92,1.10,0.18
14180,0.15,1.00,-0.15,-0.67,1.04,0.37
14200,0.15,1.00,-0.15,-0.79,0.92,0.37
14220,0.15,0.99,-0.15,-0.61,0.98,0.55
14240,0.15,1.00,-0.15,-0.67,1.04,0.43
14260,0.15,0.99,-0.15,-1.28,0.98,0.49
14280,0.15,0.99,-0.15,-1.89,0.85,0.61
14300,0.16,0.99,-0.15,-2.62,0.98,0.55
14320,0.16,1.00,-0.14,-3.36,0.67,0.43
14340,0.16,1.00,-0.14,-2.08,0.37,0.43
14360,0.16,1.00,-0.14,-1.34,0.31,0.49
14380,0.15,1.00,-0.14,-0.92,0.18,0.79
14400,0.15,1.00,-0.14,-1.46,-0.49,1.77
14420,0.14,1.00,-0.14,-2.38,-1.59,2.32
14440,0.15,0.99,-0.14,-5.74,-3.66,2.87
14460,0.15,0.99,-0.15,-7.93,-4.88,3.54
14480,0.15,1.01,-0.14,-11.29,-7.39,5.25
14500,0.16,1.01,-0.11,-13.24,-8.18,7.87
14520,0.17,1.01,-0.10,-11.35,-7.69,10.74
14540,0.18,1.01,-0.12,-9.52,-6.10,13.18
14560,0.18,1.02,-0.13,-10.07,-6.23,17.82
14580,0.18,1.05,-0.14,-9.70,-4.94,20.39
14600,0.18,1.06,-0.13,-9.22,-6.16,22.64
14620,0.20,1.07,-0.13,-6.77,-6.47,26.43
14640,0.21,1.08,-0.14,-9.28,-5.07,29.30
14660,0.22,1.06,-0.17,-10.80,-4.21,32.90
14680,0.24,1.03,-0.16,-14.89,-5.25,35.10
14700,0.25,1.01,-0.12,-20.87,-6.04,35.89
14720,0.26,1.01,-0.09,-23.01,-6.65,36.87
14740,0.29,0.99,-0.06,-23.25,-7.08,37.78
14760,0.32,0.92,-0.06,-24.48,-5.13,37.35
14780,0.34,0.91,-0.07,-27.65,-3.23,35.71
14800,0.38,0.86,-0.05,-30.09,-1.77,33.75
14820,0.36,0.91,0.00,-31.13,-1.71,30.03
14840,0.37,0.92,0.04,-28.69,-2.62,28.93
14860,0.38,0.95,0.08,-23.93,-2.56,27.65
14880,0.40,0.94,0.08,-17.27,-0.98,26.92
14900,0.41,0.94,0.07,-13.67,0.00,25.76
14920,0.43,0.92,0.04,-10.62,1.28,25.02
14940,0.44,0.91,0.04,-7.20,1.16,22.03
14960,0.44,0.89,0.04,-4.88,0.55,20.32
14980,0.46,0.88,0.06,-3.05,-0.55,18.43
15000,0.47,0.88,0.05,0.12,-0.24,14.34
15020,0.47,0.87,0.05,1.71,0.31,11.35
15040,0.48,0.86,0.05,3.17,0.31,8.24
15060,0.49,0.83,0.03,4.64,1.28,2.62
15080,0.47,0.85,0.02,4.94,1.22,-0.73
15100,0.47,0.87,-0.01,3.72,1.40,-3.23
15120,0.48,0.87,-0.01,3.11,1.10,-7.57
15140,0.47,0.89,0.02,3.17,0.85,-10.25
15160,0.45,0.91,0.05,3.60,1.28,-12.51
15180,0.44,0.93,0.05,5.43,2.01,-13.18
15200,0.43,0.93,0.03,7.87,2.50,-12.82
15220,0.45,0.90,-0.01,8.54,2.81,-13.24
15240,0.46,0.87,-0.00,8.79,2.62,-15.44
15260,0.44,0.86,0.03,9.77,2.62,-20.94
15280,0.42,0.90,0.01,12.08,2.99,-24.29
15300,0.42,0.90,-0.01,13.92,1.77,-25.88
15320,0.41,0.90,-0.01,15.20,2.14,-28.50
15340,0.39,0.90,-0.04,15.44,3.54,-30.70
15360,0.37,0.93,-0.03,15.99,3.54,-32.96
15380,0.35,0.97,-0.03,16.66,2.08,-32.41
15400,0.34,0.97,-0.06,16.11,2.50,-31.01
15420,0.33,0.96,-0.08,15.75,5.37,-29.79
15440,0.31,0.98,-0.09,13.67,6.41,-29.91
15460,0.29,0.98,-0.06,13.24,5.62,-28.63
15480,0.26,1.03,-0.06,13.49,5.49,-26.67
15500,0.27,1.02,-0.11,12.94,5.68,-21.55
15520,0.29,0.95,-0.13,9.70,7.26,-22.34
15540,0.30,0.91,-0.12,7.45,7.81,-25.39
15560,0.26,0.95,-0.09,5.74,8.67,-28.87
15580,0.25,1.03,-0.11,3.91,8.12,-28.08
15600,0.24,1.05,-0.13,3.60,9.52,-26.49
15620,0.24,1.05,-0.15,3.97,11.78,-24.66
15640,0.24,1.01,-0.18,1.40,14.10,-23.74
15660,0.19,1.04,-0.15,-0.49,13.18,-24.23
15680,0.17,1.03,-0.10,4.33,9.40,-20.51
15700,0.19,1.03,-0.13,7.08,7.02,-15.01
15720,0.19,1.01,-0.14,5.55,7.20,-13.49
15740,0.20,1.00,-0.13,2.44,6.35,-13.00
15760,0.17,1.00,-0.12,1.40,5.86,-13.92
15780,0.13,1.03,-0.10,0.98,3.78,-11.96
15800,0.15,1.01,-0.12,0.06,0.85,-6.71
15820,0.17,0.97,-0.13,-0.06,-0.18,-3.54
15840,0.17,1.00,-0.13,0.67,0.92,-2.87
15860,0.17,1.00,-0.13,1.22,1.16,-2.44
15880,0.18,0.99,-0.14,0.55,1.83,-2.75
15900,0.17,0.99,-0.13,0.37,2.14,-3.05
15920,0.17,1.00,-0.13,0.43,3.05,-3.48
15940,0.17,1.00,-0.13,0.92,3.23,-4.03
15960,0.16,1.00,-0.14,2.08,4.21,-3.60
15980,0.16,0.99,-0.14,2.01,4.27,-3.48
16000,0.16,1.00,-0.13,1.77,3.91,-3.30
16020,0.16,1.00,-0.14,1.46,2.99,-2.56
16040,0.16,0.99,-0.14,1.77,2.50,-2.56
16060,0.16,1.00,-0.14,1.83,2.62,-2.62
16080,0.16,0.99,-0.15,2.62,2.44,-2.75
16100,0.15,1.00,-0.15,1.53,2.20,-3.48
16120,0.15,0.99,-0.15,0.49,1.77,-3.30
16140,0.15,1.00,-0.14,-0.37,1.34,-2.87
16160,0.16,1.00,-0.15,0.06,0.98,-2.38
16180,0.15,1.00,-0.14,0.18,1.34,-2.26
16200,0.15,1.00,-0.15,0.37,1.04,-2.01
16220,0.15,0.99,-0.15,-0.12,0.98,-1.89
16240,0.15,1.00,-0.15,-0.24,0.98,-1.65
16260,0.15,1.00,-0.15,-0.43,0.92,-0.98
16280,0.15,1.00,-0.15,-0.55,1.04,-1.04
16300,0.15,0.99,-0.15,-0.92,0.98,-0.73
16320,0.15,1.00,-0.15,-0.92,1.10,-0.67
16340,0.15,1.00,-0.15,-0.85,1.04,-0.49
16360,0.15,1.00,-0.15,-1.10,0.92,-0.12
16380,0.15,0.99,-0.15,-1.40,1.10,0.55
16400,0.15,1.00,-0.15,-1.16,1.10,0.79
16420,0.15,1.00,-0.15,-0.98,1.16,1.16
16440,0.15,0.99,-0.15,-0.55,1.10,0.98
16460,0.15,0.99,-0.15,-0.85,1.04,1.10
16480,0.15,0.99,-0.15,-1.65,1.22,0.98
16500,0.15,1.00,-0.15,-2.20,1.10,1.04
16520,0.15,0.99,-0.15,-2.93,0.79,1.34
16540,0.16,0.99,-0.15,-3.48,0.18,1.59
16560,0.14,1.00,-0.14,-4.15,-0.37,1.77
16580,0.16,0.99,-0.15,-4.15,-2.01,2.26
16600,0.16,0.99,-0.15,-4.33,-2.26,2.20
16620,0.16,1.00,-0.14,-4.76,-2.44,2.20
16640,0.15,1.00,-0.14,-5.31,-3.42,2.87
16660,0.16,1.00,-0.14,-5.98,-3.91,3.97
16680,0.16,1.00,-0.13,-7.20,-5.49,5.00
16700,0.16,1.00,-0.13,-8.24,-6.29,7.08
16720,0.18,1.00,-0.13,-9.58,-5.80,8.54
16740,0.17,1.01,-0.12,-9.28,-4.94,9.89
16760,0.19,1.00,-0.13,-8.67,-3.23,10.99
16780,0.19,1.02,-0.11,-8.00,-3.05,12.94
16800,0.18,1.02,-0.12,-4.94,-1.04,15.87
16820,0.17,1.03,-0.14,-4.76,-1.89,18.55
16840,0.19,1.08,-0.12,-4.09,-4.70,23.38
16860,0.23,1.05,-0.15,-4.27,-5.19,26.92
16880,0.23,1.06,-0.15,-7.63,-3.54,29.24
16900,0.23,1.05,-0.17,-11.72,-3.54,32.84
16920,0.24,1.04,-0.16,-15.87,-4.15,35.03
16940,0.25,1.02,-0.14,-19.90,-5.13,37.05
16960,0.27,1.01,-0.08,-22.89,-6.53,39.18
16980,0.31,0.96,-0.06,-23.74,-6.90,40.83
17000,0.33,0.92,-0.04,-23.68,-5.25,39.86
17020,0.35,0.90,-0.05,-23.19,-1.95,37.23
17040,0.37,0.91,-0.03,-22.77,-2.26,35.77
17060,0.37,0.91,-0.03,-21.85,-1.65,33.81
17080,0.39,0.89,0.01,-20.26,-3.66,30.40
17100,0.41,0.91,-0.00,-18.31,-3.66,29.17
17120,0.43,0.88,0.01,-17.09,-2.87,27.16
17140,0.44,0.88,0.02,-15.08,-1.59,22.46
17160,0.44,0.89,0.01,-12.94,-1.46,19.78
17180,0.46,0.87,0.03,-10.99,-2.08,17.40
17200,0.46,0.87,0.03,-9.03,-1.53,12.88
17220,0.48,0.84,0.05,-6.04,-1.34,8.61
17240,0.49,0.81,0.05,-3.91,-0.43,3.85
17260,0.48,0.85,0.05,-1.22,1.10,-1.10
17280,0.45,0.93,0.08,3.54,1.04,-5.74
17300,0.46,0.90,0.04,5.55,1.40,-6.35
17320,0.46,0.87,-0.00,6.71,2.69,-9.03
17340,0.46,0.88,0.01,7.45,3.72,-13.92
17360,0.45,0.87,0.00,8.85,3.85,-16.66
17380,0.43,0.92,0.01,10.80,3.85,-18.62
17400,0.42,0.92,0.00,12.70,3.17,-18.43
17420,0.43,0.91,-0.00,14.40,3.36,-19.17
17440,0.43,0.87,-0.00,15.32,4.39,-21.73
17460,0.39,0.88,0.04,18.37,5.43,-27.77
17480,0.35,0.97,-0.05,21.06,6.77,-28.99
17500,0.39,0.93,-0.08,21.00,3.66,-26.25
17520,0.39,0.89,-0.11,17.58,5.62,-30.21
17540,0.37,0.86,-0.07,15.08,7.81,-35.34
17560,0.32,0.93,-0.03,13.85,7.14,-39.00
17580,0.27,1.01,-0.06,14.10,7.32,-35.22
17600,0.28,0.99,-0.12,13.92,9.95,-34.12
17620,0.31,0.94,-0.13,11.96,9.64,-34.24
17640,0.29,0.93,-0.13,9.28,11.23,-38.64
17660,0.21,1.09,-0.10,7.93,10.01,-36.44
17680,0.21,1.13,-0.17,7.69,11.29,-29.48
17700,0.23,1.08,-0.23,5.92,11.84,-23.74
17720,0.26,1.01,-0.18,0.49,9.52,-21.06
17740,0.21,1.03,-0.14,-1.22,11.17,-23.19
17760,0.15,1.07,-0.07,4.64,9.52,-22.28
17780,0.21,0.97,-0.18,3.91,4.94,-14.89
17800,0.21,0.99,-0.16,-0.85,3.42,-17.09
17820,0.20,1.01,-0.11,0.00,2.75,-18.37
17840,0.21,1.00,-0.12,2.20,4.21,-18.55
17860,0.18,1.01,-0.12,3.17,6.16,-20.26
17880,0.13,1.02,-0.12,3.48,5.86,-19.41
17900,0.13,1.02,-0.11,0.85,1.53,-12.82
17920,0.15,1.01,-0.11,0.43,0.37,-8.18
17940,0.15,1.00,-0.13,1.46,1.04,-5.80
17960,0.16,1.00,-0.13,1.59,1.53,-3.36
17980,0.16,1.00,-0.13,1.89,1.59,-2.62
18000,0.16,0.99,-0.14,2.26,1.65,-2.32
18020,0.16,0.99,-0.14,1.53,1.04,-2.87
18040,0.16,1.00,-0.14,1.16,0.98,-2.81
18060,0.16,0.99,-0.14,1.34,1.04,-2.93
18080,0.16,0.99,-0.14,1.46,1.28,-3.30
18100,0.15,1.00,-0.14,0.98,1.65,-3.60
18120,0.16,0.99,-0.15,1.04,1.34,-3.54
18140,0.15,1.00,-0.14,0.61,1.59,-3.78
18160,0.15,1.00,-0.14,-0.06,1.34,-3.66
18180,0.15,0.99,-0.15,-0.12,1.16,-3.91
18200,0.15,1.00,-0.14,-0.24,1.34,-4.39
18220,0.15,1.00,-0.15,0.18,0.98,-3.85
18240,0.14,1.00,-0.14,-0.12,1.10,-3.97
18260,0.14,1.00,-0.15,-0.31,0.98,-3.48
18280,0.14,1.00,-0.15,-0.73,0.85,-2.87
18300,0.14,1.00,-0.15,-0.98,0.98,-1.89
18320,0.14,1.00,-0.15,-1.34,0.92,-1.77
18340,0.14,1.00,-0.14,-1.28,0.73,-0.73
18360,0.14,1.00,-0.15,-1.04,0.73,-0.67
18380,0.14,1.00,-0.14,-0.49,0.79,-0.79
18400,0.14,1.00,-0.15,-0.49,1.04,-0.49
18420,0.14,1.00,-0.15,-0.55,1.22,-0.12
18440,0.14,1.00,-0.15,-0.79,1.04,0.18
18460,0.14,1.00,-0.15,-0.73,1.22,-0.24
18480,0.14,1.00,-0.15,-0.61,1.04,-0.18
18500,0.14,1.00,-0.15,-0.73,1.04,-0.06
18520,0.14,1.00,-0.15,-1.16,1.22,0.06
18540,0.14,1.00,-0.14,-0.85,1.10,0.06
18560,0.14,1.00,-0.15,-0.73,1.10,0.18
18580,0.14,1.00,-0.15,-0.31,1.16,0.31
18600,0.14,1.00,-0.15,-0.55,1.28,0.55
18620,0.14,1.00,-0.15,-0.85,1.40,0.98
18640,0.14,1.00,-0.15,-1.22,1.40,1.34
18660,0.14,1.00,-0.14,-0.98,1.16,2.08
18680,0.15,0.99,-0.15,-0.31,0.85,2.14
18700,0.14,1.00,-0.15,0.24,0.92,2.01
18720,0.15,0.99,-0.15,0.79,1.04,2.08
18740,0.15,0.99,-0.15,0.67,1.16,2.14
18760,0.14,1.00,-0.15,0.06,1.46,2.14
18780,0.15,0.99,-0.16,-1.83,1.46,2.44
18800,0.14,1.00,-0.15,-3.72,0.49,2.75
18820,0.16,1.00,-0.15,-4.94,-0.92,3.05
18840,0.16,1.00,-0.15,-4.39,-1.53,2.93
18860,0.16,1.00,-0.14,-4.70,-1.83,2.75
18880,0.15,1.00,-0.14,-4.82,-2.14,2.81
18900,0.14,1.00,-0.13,-5.86,-3.11,3.72
18920,0.17,1.00,-0.14,-7.75,-6.29,6.84
18940,0.17,1.00,-0.14,-8.30,-5.86,7.45
18960,0.17,1.00,-0.12,-8.97,-5.07,8.54
18980,0.17,1.03,-0.11,-8.54,-4.70,12.94
19000,0.19,1.02,-0.12,-6.96,-4.21,16.36
19020,0.19,1.02,-0.14,-5.62,-2.75,18.98
19040,0.18,1.07,-0.16,-4.46,-3.60,22.09
19060,0.17,1.11,-0.13,-2.69,-6.47,26.92
19080,0.22,1.08,-0.17,-1.71,-7.63,32.78
19100,0.21,1.08,-0.20,-5.31,-5.43,37.35
19120,0.23,1.06,-0.18,-9.22,-6.90,41.08
19140,0.23,1.06,-0.18,-14.22,-7.51,43.40
19160,0.26,1.04,-0.13,-19.78,-9.70,47.12
19180,0.30,0.96,-0.09,-22.40,-10.13,48.95
19200,0.33,0.91,-0.06,-23.80,-7.81,47.49
19220,0.35,0.90,-0.06,-23.99,-4.70,46.39
19240,0.39,0.87,-0.03,-23.68,-3.11,43.76
19260,0.43,0.85,0.00,-22.09,-8.30,39.98
19280,0.42,0.84,0.01,-19.29,-4.76,32.84
19300,0.45,0.85,0.01,-14.77,-3.42,28.38
19320,0.47,0.83,0.02,-11.23,-1.59,23.50
19340,0.47,0.82,0.01,-7.93,0.37,18.07
19360,0.46,0.87,0.00,-4.39,0.37,11.60
19380,0.46,0.88,-0.01,-2.75,0.06,9.40
19400,0.47,0.87,-0.01,-1.22,0.06,7.02
19420,0.48,0.86,-0.02,-0.31,1.04,2.62
19440,0.49,0.82,-0.01,0.18,1.77,-1.28
19460,0.48,0.81,-0.02,0.79,2.44,-6.59
19480,0.46,0.87,-0.01,1.89,2.14,-12.63
19500,0.46,0.88,0.01,3.36,2.14,-15.75
19520,0.45,0.89,0.02,5.55,2.69,-18.98
19540,0.44,0.86,0.01,9.40,3.91,-23.50
19560,0.42,0.89,-0.02,11.84,5.31,-26.92
19580,0.41,0.90,-0.05,12.88,5.19,-28.32
19600,0.40,0.92,-0.07,13.18,4.27,-30.21
19620,0.38,0.94,-0.06,12.70,3.97,-31.07
19640,0.37,0.94,-0.02,12.94,2.75,-30.58
19660,0.36,0.91,-0.07,14.40,4.21,-31.43
19680,0.34,0.94,-0.10,12.27,5.55,-32.78
19700,0.33,0.95,-0.10,11.41,5.92,-32.47
19720,0.31,0.97,-0.07,11.47,8.00,-33.14
19740,0.28,0.98,-0.07,13.37,8.42,-32.35
19760,0.26,1.00,-0.11,13.67,8.12,-29.79
19780,0.29,0.98,-0.15,10.93,8.54,-28.56
19800,0.32,0.93,-0.17,6.41,10.62,-31.07
19820,0.23,1.04,-0.16,2.56,13.79,-34.67
19840,0.19,1.12,-0.11,1.34,11.11,-31.62
19860,0.17,1.10,-0.20,3.42,11.17,-21.73
19880,0.22,1.03,-0.19,1.53,6.29,-17.64
19900,0.23,1.00,-0.18,-1.95,7.14,-16.66
19920,0.22,1.00,-0.13,-4.03,6.96,-17.15
19940,0.22,0.99,-0.11,-2.56,7.87,-17.76
19960,0.19,1.00,-0.12,1.71,9.34,-18.98
19980,0.14,1.02,-0.13,5.49,7.87,-16.91
20000,0.18,1.01,-0.14,4.88,3.54,-13.61
20020,0.18,1.01,-0.13,2.32,4.21,-12.57
20040,0.18,1.00,-0.13,0.98,4.21,-11.60
20060,0.17,1.00,-0.14,0.43,4.21,-11.17
20080,0.17,1.00,-0.14,-0.49,3.78,-10.99
20100,0.16,1.00,-0.14,-0.98,2.81,-10.80
20120,0.15,1.00,-0.13,-0.73,2.14,-8.73
20140,0.15,1.00,-0.12,-1.04,1.10,-6.53
20160,0.15,1.00,-0.13,-0.43,0.73,-4.82
20180,0.15,1.00,-0.14,0.37,0.98,-2.81
20200,0.15,1.00,-0.13,0.12,0.98,-2.14
20220,0.15,1.00,-0.14,0.37,0.73,-1.59
20240,0.16,1.00,-0.14,0.61,0.67,-0.92
20260,0.16,0.99,-0.14,0.49,0.79,-1.22
20280,0.16,1.00,-0.14,0.12,0.79,-1.65
20300,0.15,1.00,-0.14,-0.43,0.67,-2.26
20320,0.16,1.00,-0.14,-0.12,0.55,-2.26
20340,0.15,1.00,-0.14,-0.06,1.04,-2.38
20360,0.15,1.00,-0.14,-0.67,0.55,-2.14
20380,0.15,1.00,-0.14,-0.73,0.24,-1.83
20400,0.15,1.00,-0.14,-0.85,0.37,-1.34
20420,0.15,1.00,-0.14,-0.73,0.49,-1.04
20440,0.15,0.99,-0.15,-0.92,0.43,-0.79
20460,0.15,1.00,-0.14,-1.16,0.49,-0.92
20480,0.15,1.00,-0.15,-1.71,0.37,-0.43
20500,0.15,1.00,-0.14,-1.77,0.43,-0.31
20520,0.15,1.00,-0.14,-1.53,0.49,-0.31
20540,0.15,1.00,-0.14,-0.79,0.61,-0.24
20560,0.15,1.00,-0.14,-1.10,0.55,-0.24
20580,0.15,1.00,-0.14,-1.22,0.73,-0.37
20600,0.15,1.00,-0.14,-1.40,0.67,-0.18
20620,0.15,1.00,-0.14,-1.16,0.67,-0.18
20640,0.15,1.00,-0.14,-1.04,0.67,-0.06
20660,0.15,1.00,-0.14,-0.79,0.67,0.12
20680,0.15,1.00,-0.14,-0.85,0.79,0.18
20700,0.15,1.00,-0.14,-0.61,0.98,0.24
20720,0.15,1.00,-0.14,-0.06,1.16,0.18
20740,0.15,1.00,-0.14,-0.18,1.10,0.37
20760,0.15,1.00,-0.14,0.06,1.22,0.24
20780,0.15,1.00,-0.15,-0.18,1.22,0.31
20800,0.15,1.00,-0.14,-0.43,1.10,0.49
20820,0.15,0.99,-0.15,-0.67,1.16,0.43
20840,0.15,1.00,-0.15,-1.28,0.92,0.43
20860,0.16,1.00,-0.15,-1.40,0.98,0.37
20880,0.15,1.00,-0.14,-1.65,0.67,0.49
20900,0.16,0.99,-0.15,-1.59,0.73,0.55
20920,0.15,1.00,-0.14,-2.32,0.24,0.92
20940,0.14,1.00,-0.14,-3.17,-1.10,2.14
20960,0.16,0.99,-0.15,-4.82,-2.75,3.05
20980,0.17,0.99,-0.15,-6.41,-3.05,2.50
21000,0.16,1.00,-0.13,-6.71,-2.75,2.62
21020,0.15,1.01,-0.13,-6.65,-3.30,3.91
21040,0.16,1.00,-0.13,-8.54,-4.27,6.29
21060,0.16,1.00,-0.13,-11.96,-6.59,9.16
21080,0.16,1.01,-0.11,-14.59,-7.69,11.41
21100,0.19,1.00,-0.12,-15.87,-7.20,13.24
21120,0.19,1.02,-0.11,-14.28,-4.64,14.04
21140,0.21,1.01,-0.12,-12.39,-4.03,15.63
21160,0.21,1.01,-0.13,-11.54,-2.01,15.32
21180,0.20,1.02,-0.13,-10.19,-1.53,13.61
21200,0.21,1.04,-0.11,-11.66,-3.05,15.56
21220,0.20,1.06,-0.11,-13.61,-2.32,16.91
21240,0.21,1.05,-0.10,-16.36,-3.11,22.03
21260,0.22,1.06,-0.09,-17.40,-2.20,25.27
21280,0.23,1.03,-0.08,-18.43,-2.75,28.20
21300,0.25,1.02,-0.08,-20.75,-2.44,31.37
21320,0.26,1.01,-0.07,-21.36,-2.08,32.35
21340,0.28,0.98,-0.05,-22.22,-2.75,33.39
21360,0.30,0.98,-0.04,-23.19,-3.36,33.26
21380,0.31,0.99,0.01,-22.16,-4.64,36.38
21400,0.32,0.97,0.02,-20.51,-3.42,38.15
21420,0.34,0.98,0.02,-17.27,-2.69,38.82
21440,0.38,0.92,0.04,-11.90,-2.14,38.94
21460,0.40,0.89,0.04,-9.22,-1.40,36.80
21480,0.42,0.88,0.04,-6.65,-1.46,33.14
21500,0.44,0.85,0.03,-5.19,-2.20,26.86
21520,0.44,0.85,0.02,-4.58,-1.71,22.46
21540,0.45,0.86,0.03,-4.27,-1.71,18.19
21560,0.45,0.89,0.03,-3.91,-1.16,13.67
21580,0.44,0.91,0.02,-3.72,-1.04,11.54
21600,0.45,0.91,0.03,-3.23,-1.40,10.50
21620,0.45,0.93,0.03,-2.93,-0.18,9.95
21640,0.45,0.93,0.03,-3.17,0.37,9.64
21660,0.46,0.90,0.02,-3.42,0.79,9.89
21680,0.47,0.88,0.00,-4.15,1.22,8.00
21700,0.47,0.88,0.02,-4.58,0.67,6.10
21720,0.49,0.85,0.02,-5.07,0.79,3.72
21740,0.50,0.84,0.03,-5.00,1.83,-1.16
21760,0.50,0.81,0.07,-3.72,2.56,-6.16
21780,0.50,0.81,0.10,-0.79,3.05,-12.15
21800,0.48,0.84,0.10,2.99,3.91,-20.75
21820,0.48,0.84,0.08,10.44,3.72,-24.72
21840,0.46,0.87,0.05,13.85,5.55,-29.42
21860,0.45,0.86,0.05,18.43,4.94,-33.08
21880,0.41,0.87,-0.00,21.48,5.55,-36.99
21900,0.41,0.88,-0.07,19.59,4.39,-38.45
21920,0.41,0.87,-0.08,15.93,3.78,-40.16
21940,0.31,1.02,-0.04,10.80,5.68,-43.88
21960,0.35,0.96,0.05,11.60,2.20,-40.34
21980,0.29,0.98,0.02,14.83,7.32,-39.73
22000,0.32,0.96,-0.09,15.50,11.17,-36.13
22020,0.33,0.88,-0.12,12.45,12.94,-38.70
22040,0.28,0.96,-0.08,8.73,12.70,-43.46
22060,0.21,1.14,-0.03,10.07,6.96,-40.10
22080,0.23,1.11,-0.01,13.73,5.74,-33.26
22100,0.22,1.12,-0.09,18.86,12.02,-29.05
22120,0.27,1.00,-0.15,18.74,18.74,-27.47
22140,0.24,1.02,-0.23,16.17,23.74,-32.23
22160,0.11,1.00,-0.15,19.29,22.34,-34.18
22180,0.07,1.16,-0.06,21.18,5.43,-19.78
22200,0.19,0.99,-0.18,9.34,4.15,-8.79
22220,0.20,0.99,-0.13,0.00,2.32,-10.01
22240,0.19,1.00,-0.12,-0.55,4.46,-11.47
22260,0.18,1.00,-0.12,2.50,4.09,-12.57
22280,0.16,1.00,-0.13,3.05,3.78,-12.33
22300,0.15,1.00,-0.13,2.32,3.42,-11.60
22320,0.14,1.00,-0.12,0.00,1.22,-8.85
22340,0.16,1.01,-0.12,-0.06,-0.55,-6.04
22360,0.16,1.00,-0.13,1.34,0.12,-4.39
22380,0.16,1.00,-0.14,0.31,0.37,-3.17
22400,0.16,0.99,-0.14,-0.92,0.79,-2.69
22420,0.16,1.00,-0.14,-2.01,0.55,-2.38
22440,0.16,1.00,-0.13,-2.01,0.12,-2.20
22460,0.16,0.99,-0.13,-0.92,0.37,-2.32
22480,0.16,1.00,-0.14,-0.79,0.37,-2.62
22500,0.15,1.00,-0.13,-0.37,0.12,-2.32
22520,0.15,1.00,-0.13,0.85,0.37,-1.28
22540,0.16,1.00,-0.14,1.10,0.24,-0.98
22560,0.16,1.00,-0.14,-0.31,0.31,-0.92
22580,0.16,1.00,-0.14,-0.67,0.43,-1.16
22600,0.15,1.00,-0.14,-0.67,0.31,-0.98
22620,0.16,1.00,-0.14,-1.46,0.24,-1.34
22640,0.15,1.00,-0.14,-1.22,0.24,-1.34
22660,0.15,1.00,-0.13,-1.59,0.37,-1.59
22680,0.16,1.00,-0.14,-1.34,0.43,-1.46
22700,0.15,1.00,-0.13,-1.71,0.18,-1.40
22720,0.16,1.00,-0.13,-0.24,0.18,-0.85
22740,0.15,1.00,-0.13,-0.12,0.43,-0.49
22760,0.16,1.00,-0.14,-0.55,0.43,-0.24
22780,0.15,1.00,-0.13,-1.22,0.31,-0.31
22800,0.15,1.00,-0.14,-1.83,0.49,-0.43
22820,0.16,1.00,-0.14,-1.71,-0.06,-0.67
22840,0.16,1.00,-0.13,-0.85,0.18,-0.73
22860,0.15,1.00,-0.13,-0.55,0.24,-0.55
22880,0.15,1.00,-0.14,-1.40,-0.24,0.24
22900,0.14,1.00,-0.13,-1.95,-0.79,0.79
22920,0.16,1.00,-0.14,-2.75,-1.77,1.71
22940,0.16,1.00,-0.14,-3.85,-2.69,1.10
22960,0.16,1.00,-0.13,-3.60,-2.50,0.55
22980,0.16,1.00,-0.13,-2.38,-1.83,0.18
23000,0.16,1.00,-0.13,-1.89,-1.10,0.12
23020,0.16,1.00,-0.13,-1.83,-0.43,0.37
23040,0.16,1.00,-0.13,-1.46,-0.37,0.49
23060,0.16,1.00,-0.13,-1.53,-0.31,0.55
23080,0.16,1.00,-0.13,-1.16,0.00,0.49
23100,0.16,1.00,-0.13,0.49,0.43,0.98
23120,0.16,0.99,-0.14,0.79,1.22,1.10
23140,0.16,0.99,-0.13,-0.06,1.10,0.79
23160,0.16,1.00,-0.13,-0.79,0.73,0.79
23180,0.16,1.00,-0.13,-0.37,0.67,1.10
23200,0.17,0.99,-0.14,-0.18,0.67,1.46
23220,0.16,0.99,-0.14,-0.98,0.92,1.16
23240,0.16,1.00,-0.13,-1.53,0.67,1.22
23260,0.17,1.00,-0.13,-0.73,0.67,1.59
23280,0.17,1.00,-0.13,-0.92,0.79,1.83
23300,0.16,1.00,-0.13,-1.22,0.55,1.95
23320,0.17,0.99,-0.14,-1.95,-0.31,2.32
23340,0.17,0.99,-0.13,-3.23,-0.61,2.14
23360,0.17,1.00,-0.13,-3.78,-0.61,2.08
23380,0.16,1.00,-0.13,-5.31,-1.77,2.32
23400,0.17,1.00,-0.13,-6.41,-2.44,2.99
23420,0.18,0.99,-0.12,-6.77,-2.69,3.23
23440,0.17,1.00,-0.11,-6.10,-2.38,3.91
23460,0.17,1.00,-0.11,-5.74,-2.08,4.94
23480,0.18,1.00,-0.12,-5.86,-2.26,6.16
23500,0.19,1.00,-0.12,-5.31,-1.95,6.90
23520,0.20,1.00,-0.11,-4.70,-1.40,7.14
23540,0.19,1.00,-0.12,-4.58,-0.79,7.32
23560,0.20,1.00,-0.11,-4.76,-0.73,7.45
23580,0.21,0.99,-0.12,-4.52,-0.85,7.26
23600,0.20,1.00,-0.11,-4.58,-0.55,6.71
23620,0.21,1.00,-0.11,-3.78,-0.67,6.59
23640,0.22,0.99,-0.11,-3.23,-0.24,6.47
23660,0.21,1.00,-0.11,-3.48,0.12,5.92
23680,0.22,1.00,-0.10,-3.23,-0.55,6.29
23700,0.22,1.00,-0.10,-3.17,-0.24,6.71
23720,0.23,0.99,-0.11,-2.99,-0.24,6.59
23740,0.24,0.99,-0.10,-2.93,0.73,5.68
23760,0.24,0.94,-0.09,-3.23,1.34,3.85
23780,0.24,0.97,-0.10,-3.48,1.77,2.69
23800,0.23,0.99,-0.09,-2.93,1.59,2.32
23820,0.23,1.00,-0.09,-1.83,0.73,3.36
23840,0.25,0.97,-0.11,-1.95,0.85,3.48
23860,0.24,0.98,-0.11,-3.54,0.67,2.56
23880,0.24,0.99,-0.11,-4.82,-0.31,2.56
23900,0.24,1.00,-0.10,-6.16,-0.98,3.48
23920,0.24,1.00,-0.10,-7.26,-1.04,4.70
23940,0.25,0.99,-0.10,-8.54,-0.67,5.07
23960,0.25,0.99,-0.10,-10.62,-0.49,5.31
23980,0.25,1.00,-0.09,-11.84,-1.16,5.86
24000,0.25,1.00,-0.08,-12.76,-0.92,6.59
24020,0.25,1.01,-0.08,-13.73,-1.83,8.97
24040,0.25,1.02,-0.07,-14.34,-2.32,10.56
24060,0.26,1.02,-0.05,-14.65,-2.75,12.76
24080,0.26,1.02,-0.04,-13.18,-2.69,15.56
24100,0.27,1.02,-0.02,-11.41,-2.62,17.70
24120,0.29,1.00,-0.02,-8.79,-2.44,19.78
24140,0.31,0.98,-0.02,-5.43,-1.59,20.32
24160,0.30,0.98,-0.03,-3.85,-1.10,20.08
24180,0.32,0.96,-0.03,-3.85,-1.28,20.20
24200,0.32,0.96,-0.06,-5.07,-1.16,19.47
24220,0.32,0.98,-0.05,-6.65,-1.89,19.04
24240,0.34,0.96,-0.05,-8.48,-2.75,20.08
24260,0.34,0.97,-0.05,-10.68,-3.11,20.63
24280,0.36,0.94,-0.04,-12.27,-1.89,20.81
24300,0.37,0.95,-0.03,-14.16,-1.77,20.81
24320,0.37,0.94,-0.01,-15.20,-1.34,21.42
24340,0.39,0.94,-0.02,-17.40,-0.73,21.00
24360,0.39,0.94,-0.01,-18.86,-0.79,20.75
24380,0.40,0.93,0.01,-19.10,-1.89,20.87
24400,0.42,0.92,0.04,-17.21,-2.08,19.78
24420,0.42,0.92,0.08,-14.95,-1.89,18.92
24440,0.42,0.92,0.08,-11.96,-1.16,18.19
24460,0.44,0.89,0.05,-8.91,0.12,16.66
24480,0.45,0.91,0.04,-7.51,0.85,14.71
24500,0.46,0.89,0.03,-7.63,1.34,13.31
24520,0.46,0.90,0.05,-7.93,0.73,10.93
24540,0.47,0.88,0.06,-7.51,0.12,9.46
24560,0.47,0.87,0.08,-6.59,0.49,7.39
24580,0.46,0.92,0.05,-5.49,0.12,5.37
24600,0.46,0.92,0.03,-6.04,-0.12,5.62
24620,0.47,0.90,0.02,-7.02,-0.55,5.37
24640,0.47,0.91,0.02,-9.52,-0.67,4.94
24660,0.47,0.91,0.05,-11.35,0.00,4.64
24680,0.47,0.92,0.09,-11.96,0.00,4.76
24700,0.47,0.91,0.10,-11.05,0.98,5.31
24720,0.47,0.92,0.09,-9.40,0.92,5.68
24740,0.48,0.91,0.09,-8.61,0.73,6.35
24760,0.48,0.91,0.08,-8.48,0.18,6.77
24780,0.47,0.94,0.08,-7.69,-0.12,7.45
24800,0.45,0.99,0.10,-5.37,-0.98,10.13
24820,0.47,1.01,0.13,-3.48,-2.14,14.89
24840,0.50,0.94,0.16,3.11,-2.14,20.81
24860,0.52,0.85,0.13,7.39,-1.10,21.30
24880,0.54,0.82,0.09,7.87,-0.12,19.17
24900,0.54,0.80,0.04,6.47,0.79,15.20
24920,0.54,0.83,0.04,4.21,2.08,12.33
24940,0.56,0.84,0.05,3.23,2.01,9.89
24960,0.56,0.82,0.07,2.50,2.87,5.80
24980,0.56,0.83,0.09,3.23,2.75,2.75
25000,0.55,0.82,0.09,3.91,1.89,1.28
25020,0.55,0.83,0.06,1.53,4.03,-1.34
25040,0.55,0.83,0.02,-1.10,4.15,-3.36
25060,0.52,0.90,0.01,-3.05,3.48,-4.33
25080,0.54,0.88,0.05,-3.48,0.31,-3.23
25100,0.53,0.90,0.11,-2.20,-0.67,-3.97
25120,0.53,0.90,0.11,-0.55,-1.16,-3.36
25140,0.54,0.89,0.09,0.98,-0.24,-2.50
25160,0.55,0.85,0.07,2.26,1.89,-2.14
25180,0.56,0.82,0.07,2.81,1.28,-4.39
25200,0.55,0.83,0.06,3.85,3.66,-6.53
25220,0.54,0.84,0.07,5.98,2.56,-11.11
25240,0.53,0.85,0.09,7.14,2.32,-13.06
25260,0.53,0.84,0.06,7.51,4.03,-15.44
25280,0.52,0.83,0.04,8.18,4.27,-19.78
25300,0.49,0.92,0.03,9.40,4.46,-22.40
25320,0.49,0.93,0.07,10.56,1.83,-21.00
25340,0.49,0.90,0.05,11.35,2.14,-18.49
25360,0.49,0.87,0.01,11.05,3.17,-18.80
25380,0.48,0.87,-0.02,10.19,3.23,-19.59
25400,0.46,0.92,-0.01,7.75,3.54,-21.24
25420,0.46,0.91,0.03,7.26,2.26,-20.87
25440,0.45,0.92,0.02,7.14,3.36,-21.18
25460,0.45,0.90,0.02,7.14,3.48,-21.67
25480,0.44,0.91,-0.01,7.02,3.66,-22.64
25500,0.44,0.90,-0.01,7.08,2.93,-23.19
25520,0.42,0.93,0.01,8.30,2.20,-24.66
25540,0.42,0.91,0.03,9.95,2.08,-24.96
25560,0.40,0.94,0.02,11.60,3.17,-26.25
25580,0.39,0.95,-0.02,13.24,3.97,-26.00
25600,0.36,1.00,-0.03,14.40,3.36,-24.11
25620,0.36,1.00,-0.03,14.47,2.87,-21.06
25640,0.36,0.98,-0.05,14.22,3.54,-18.62
25660,0.37,0.92,-0.08,12.76,5.07,-17.64
25680,0.38,0.89,-0.07,10.74,4.52,-19.23
25700,0.35,0.94,-0.09,8.61,5.19,-21.73
25720,0.32,1.00,-0.06,7.20,3.30,-20.75
25740,0.34,0.96,-0.04,7.93,3.42,-19.17
25760,0.34,0.92,-0.05,9.95,5.43,-20.14
25780,0.31,0.94,-0.04,11.35,8.06,-24.84
25800,0.30,0.97,-0.07,12.45,7.57,-25.02
25820,0.29,0.97,-0.10,11.96,8.12,-25.09
25840,0.29,0.99,-0.13,9.58,8.67,-25.15
25860,0.26,0.99,-0.10,8.00,8.30,-24.84
25880,0.24,1.03,-0.10,7.87,7.69,-23.56
25900,0.23,1.06,-0.13,7.26,6.77,-16.85
25920,0.25,1.03,-0.17,5.68,6.77,-13.49
25940,0.24,1.01,-0.18,1.83,6.41,-12.82
25960,0.24,1.02,-0.14,-1.83,3.85,-11.41
25980,0.22,1.02,-0.11,-2.87,2.32,-8.85
26000,0.22,1.02,-0.11,-1.95,0.98,-5.74
26020,0.24,1.00,-0.11,-1.83,0.06,-3.72
26040,0.25,0.97,-0.12,-2.50,0.98,-4.33
26060,0.25,0.97,-0.11,-3.11,1.04,-5.92
26080,0.25,0.97,-0.11,-2.81,1.53,-7.39
26100,0.22,1.00,-0.10,-1.34,1.22,-8.00
26120,0.23,1.00,-0.10,0.31,1.22,-6.90
26140,0.23,0.99,-0.11,1.10,1.65,-5.80
26160,0.24,0.98,-0.12,0.98,2.56,-6.41
26180,0.23,0.98,-0.12,0.31,3.60,-7.69
26200,0.19,1.00,-0.12,0.31,2.75,-8.00
26220,0.22,0.99,-0.12,-0.98,0.24,-4.76
26240,0.21,0.99,-0.12,-2.14,0.24,-4.21
26260,0.22,0.99,-0.11,-2.20,0.12,-3.97
26280,0.22,0.99,-0.11,-1.59,0.85,-3.85
26300,0.21,0.99,-0.11,-1.34,0.67,-3.85
26320,0.21,0.99,-0.12,-0.85,0.18,-3.85
26340,0.21,0.99,-0.12,-1.83,-0.18,-3.54
26360,0.21,0.99,-0.11,-2.20,-0.06,-3.85
26380,0.21,0.99,-0.11,-2.08,0.18,-4.09
26400,0.21,1.00,-0.10,-1.04,0.37,-3.72
26420,0.21,0.99,-0.11,-0.06,1.34,-3.30
26440,0.21,0.99,-0.11,0.24,1.71,-3.36
26460,0.22,0.98,-0.12,1.59,2.62,-3.66
26480,0.22,0.98,-0.13,2.38,4.94,-5.55
26500,0.20,0.99,-0.12,2.87,5.62,-7.45
26520,0.16,1.02,-0.10,4.52,4.88,-7.08
26540,0.19,0.99,-0.13,3.91,2.69,-3.11
26560,0.20,0.99,-0.13,2.08,2.01,-3.05
26580,0.19,0.99,-0.13,0.79,2.20,-3.60
26600,0.20,0.99,-0.13,-0.24,1.89,-3.97
26620,0.20,0.99,-0.13,0.18,2.62,-4.70
26640,0.20,0.99,-0.14,0.31,3.23,-5.92
26660,0.16,1.00,-0.12,1.40,3.78,-7.08
26680,0.17,1.00,-0.12,1.22,2.14,-5.74
26700,0.17,1.00,-0.13,0.06,1.22,-4.52
26720,0.18,1.00,-0.13,0.61,1.10,-3.66
26740,0.18,0.99,-0.13,0.67,1.28,-3.30
26760,0.18,0.99,-0.13,0.43,1.34,-3.23
26780,0.18,0.99,-0.13,-0.31,1.53,-3.05
26800,0.17,1.00,-0.13,-0.43,1.46,-3.17
26820,0.17,1.00,-0.13,0.24,1.53,-3.11
26840,0.17,1.00,-0.13,0.73,1.71,-2.44
26860,0.17,1.00,-0.13,0.00,1.28,-2.14
26880,0.17,1.00,-0.14,-0.37,1.16,-1.65
26900,0.17,1.00,-0.13,-0.79,0.98,-1.34
26920,0.17,1.00,-0.13,-0.85,0.79,-1.04
26940,0.17,0.99,-0.14,-0.85,1.04,-1.16
26960,0.17,0.99,-0.14,-1.22,1.34,-1.10
26980,0.17,1.00,-0.13,-1.22,1.10,-0.92
27000,0.17,1.00,-0.14,-1.46,0.73,-0.79
27020,0.17,1.00,-0.13,-1.83,0.37,-0.61
27040,0.17,1.00,-0.14,-1.16,0.31,-0.37
27060,0.17,1.00,-0.13,-1.04,0.49,-0.24
27080,0.17,0.99,-0.14,-0.31,0.92,0.00
27100,0.17,1.00,-0.13,-0.73,1.04,-0.12
27120,0.17,0.99,-0.14,-0.79,0.85,0.12
27140,0.17,1.00,-0.14,-1.34,0.49,0.37
27160,0.17,1.00,-0.13,-0.73,0.43,0.55
27180,0.17,0.99,-0.14,-0.79,0.61,0.37
27200,0.17,0.99,-0.13,-0.79,0.98,0.18
27220,0.17,1.00,-0.13,-0.67,0.98,0.37
27240,0.17,1.00,-0.14,-0.61,0.92,0.55
27260,0.17,1.00,-0.14,-0.85,0.31,1.10
27280,0.17,0.99,-0.14,-1.40,0.31,1.22
27300,0.17,0.99,-0.14,-0.92,0.55,1.46
27320,0.18,0.99,-0.14,-1.16,0.55,1.28
27340,0.17,1.00,-0.14,-1.59,0.73,1.22
27360,0.17,0.99,-0.14,-2.93,-0.06,1.89
27380,0.17,1.00,-0.14,-3.97,-0.92,2.01
27400,0.17,1.00,-0.13,-5.07,-2.32,2.26
27420,0.17,1.00,-0.12,-5.37,-2.62,2.87
27440,0.16,1.01,-0.11,-5.43,-2.75,4.39
27460,0.19,1.00,-0.13,-6.47,-3.17,6.29
27480,0.19,1.00,-0.13,-7.51,-2.32,6.53
27500,0.19,1.01,-0.12,-7.45,-2.20,7.20
27520,0.20,1.00,-0.12,-6.77,-2.44,8.42
27540,0.20,1.00,-0.12,-5.55,-1.71,9.09
27560,0.20,1.00,-0.12,-5.00,-0.92,9.03
27580,0.21,0.99,-0.12,-4.39,-1.04,9.34
27600,0.21,1.00,-0.13,-4.27,-1.46,9.52
27620,0.21,1.00,-0.12,-4.33,-2.14,10.01
27640,0.20,1.02,-0.13,-5.19,-2.62,11.23
27660,0.23,1.00,-0.11,-5.55,-3.60,12.70
27680,0.24,1.00,-0.12,-5.37,-2.81,12.63
27700,0.25,0.99,-0.11,-6.10,-2.14,12.45
27720,0.23,1.02,-0.11,-6.84,-2.01,12.88
27740,0.25,0.99,-0.10,-7.02,-2.01,14.95
27760,0.26,0.99,-0.11,-7.81,-1.95,15.01
27780,0.27,0.99,-0.10,-9.03,-2.14,14.95
27800,0.27,0.99,-0.09,-10.31,-2.32,14.95
27820,0.28,0.97,-0.08,-10.68,-2.69,15.20
27840,0.29,0.97,-0.07,-10.74,-2.44,15.01
27860,0.30,0.97,-0.07,-10.62,-2.56,15.01
27880,0.30,0.97,-0.07,-10.38,-2.14,14.34
27900,0.30,0.98,-0.05,-9.58,-2.69,14.22
27920,0.30,0.99,-0.04,-8.30,-2.75,16.48
27940,0.31,0.99,-0.05,-7.51,-2.38,17.15
27960,0.33,0.98,-0.05,-6.84,-2.38,18.37
27980,0.32,0.99,-0.06,-6.71,-2.56,19.78
28000,0.33,0.98,-0.06,-7.69,-1.89,20.32
28020,0.35,0.96,-0.06,-8.79,-2.32,21.12
28040,0.35,0.98,-0.06,-10.93,-2.62,21.79
28060,0.35,0.99,-0.04,-11.84,-2.99,23.56
28080,0.36,0.98,-0.03,-12.57,-3.36,25.15
28100,0.38,0.97,-0.03,-13.06,-3.17,27.83
28120,0.38,0.98,-0.01,-12.33,-2.75,28.93
28140,0.40,0.96,-0.01,-12.02,-3.36,31.07
28160,0.44,0.89,-0.00,-12.21,-3.23,31.56
28180,0.43,0.90,-0.00,-11.90,-1.71,29.36
28200,0.45,0.89,0.01,-11.90,-1.95,29.36
28220,0.47,0.87,0.02,-11.47,-1.83,27.71
28240,0.48,0.88,0.02,-11.35,-1.16,24.84
28260,0.49,0.86,0.01,-11.54,-0.61,23.68
28280,0.49,0.89,-0.00,-12.33,-0.18,22.03
28300,0.50,0.89,0.02,-13.00,-0.55,20.39
28320,0.50,0.89,0.04,-12.33,-1.16,18.98
28340,0.52,0.87,0.06,-11.05,-1.89,18.25
28360,0.52,0.87,0.08,-8.30,-1.10,16.42
28380,0.53,0.85,0.07,-6.53,-0.24,15.08
28400,0.54,0.85,0.07,-5.13,0.31,13.43
28420,0.54,0.85,0.05,-3.72,0.98,10.93
28440,0.55,0.85,0.04,-2.81,0.67,9.34
28460,0.55,0.86,0.05,-1.83,-0.24,7.81
28480,0.53,0.85,0.03,-1.28,-1.10,6.77
28500,0.55,0.85,0.05,-1.46,-1.10,4.88
28520,0.55,0.86,0.05,-0.67,-0.49,4.94
28540,0.54,0.88,0.05,-0.67,-0.79,4.15
28560,0.55,0.87,0.03,-1.40,-1.16,5.31
28580,0.56,0.85,0.03,-1.89,-1.40,5.49
28600,0.56,0.85,0.03,-2.32,-1.40,4.70
28620,0.57,0.82,0.04,-3.54,-1.46,3.60
28640,0.57,0.82,0.05,-3.78,-1.04,2.20
28660,0.57,0.83,0.06,-3.66,-0.49,1.10
28680,0.57,0.83,0.07,-2.32,0.12,-0.61
28700,0.56,0.84,0.07,-1.10,0.73,-2.08
28720,0.57,0.84,0.08,-0.18,0.61,-3.05
28740,0.56,0.85,0.05,0.92,1.59,-4.88
28760,0.56,0.86,0.05,1.59,1.22,-5.49
28780,0.56,0.86,0.05,1.83,0.85,-5.49
28800,0.55,0.85,0.05,1.65,1.16,-6.41
28820,0.55,0.86,0.07,1.83,1.16,-6.53
28840,0.55,0.86,0.05,1.65,1.83,-6.77
28860,0.56,0.84,0.04,1.71,2.75,-8.00
28880,0.57,0.81,0.03,1.77,2.75,-10.31
28900,0.57,0.80,0.05,3.11,2.81,-13.43
28920,0.54,0.84,0.05,5.13,3.42,-19.17
28940,0.53,0.88,0.08,9.03,2.14,-21.12
28960,0.52,0.89,0.08,11.29,1.77,-22.03
28980,0.52,0.88,0.06,12.45,2.08,-21.79
29000,0.52,0.84,-0.02,12.70,3.54,-23.50
29020,0.49,0.87,-0.01,12.63,3.36,-25.70
29040,0.48,0.90,0.01,12.02,3.11,-26.00
29060,0.46,0.93,0.00,11.84,2.14,-23.86
29080,0.45,0.93,-0.03,10.31,2.93,-22.28
29100,0.46,0.91,-0.04,8.18,2.93,-21.24
29120,0.48,0.85,-0.04,5.43,2.93,-22.71
29140,0.47,0.84,-0.01,5.55,3.91,-26.61
29160,0.46,0.86,0.04,7.87,3.05,-29.54
29180,0.41,0.95,0.02,11.35,0.24,-32.71
29200,0.43,0.98,0.06,12.94,0.43,-31.37
29220,0.41,0.96,0.01,15.63,6.04,-30.52
29240,0.39,0.92,-0.02,18.07,8.91,-31.68
29260,0.37,0.94,-0.05,20.02,8.79,-31.19
29280,0.34,0.99,-0.09,20.94,7.51,-28.20
29300,0.34,0.99,-0.12,19.41,8.12,-22.77
29320,0.32,0.98,-0.14,14.22,8.61,-22.34
29340,0.32,0.98,-0.09,10.86,5.92,-21.36
29360,0.31,1.01,-0.09,9.77,5.92,-20.45
29380,0.30,1.01,-0.13,8.91,5.55,-16.85
29400,0.31,0.99,-0.14,6.96,4.09,-14.83
29420,0.31,0.99,-0.15,4.70,3.85,-13.55
29440,0.31,0.97,-0.11,2.26,3.30,-13.24
29460,0.30,0.98,-0.08,2.50,4.33,-13.37
29480,0.30,0.98,-0.10,3.23,5.19,-13.18
29500,0.29,0.97,-0.11,3.42,5.13,-12.63
29520,0.29,0.97,-0.11,2.87,4.33,-12.63
29540,0.29,0.97,-0.11,2.26,3.97,-12.76
29560,0.29,0.97,-0.12,1.65,5.13,-14.04
29580,0.29,0.95,-0.13,1.04,5.98,-15.01
29600,0.27,0.97,-0.13,0.55,6.53,-16.24
29620,0.25,1.01,-0.13,-1.77,5.00,-14.89
29640,0.24,1.04,-0.14,-1.89,4.21,-12.33
29660,0.24,1.03,-0.12,-1.59,3.36,-9.16
29680,0.25,1.00,-0.13,-1.34,2.99,-6.04
29700,0.26,0.96,-0.13,-1.71,2.99,-5.68
29720,0.27,0.95,-0.13,-2.38,3.72,-6.96
29740,0.26,0.96,-0.13,-3.85,4.39,-10.19
29760,0.25,0.98,-0.12,-3.85,5.25,-11.41
29780,0.24,0.98,-0.11,-3.54,5.00,-11.72
29800,0.25,0.98,-0.12,-3.23,5.62,-12.27
29820,0.22,1.00,-0.12,-1.77,6.04,-13.79
29840,0.20,1.02,-0.12,-0.43,5.68,-13.67
29860,0.20,1.02,-0.11,1.40,3.97,-11.60
29880,0.20,1.00,-0.12,1.28,3.54,-9.28
29900,0.21,0.99,-0.13,0.12,3.85,-8.24
29920,0.21,0.99,-0.13,-0.85,4.21,-7.93
29940,0.20,0.99,-0.12,-0.73,4.21,-8.12
29960,0.20,0.99,-0.12,0.00,4.03,-8.18
29980,0.19,1.00,-0.12,0.18,3.85,-8.18
30000,0.18,1.00,-0.12,1.04,2.56,-6.71
30020,0.18,1.00,-0.12,0.85,1.65,-5.37
30040,0.19,0.99,-0.13,0.43,1.77,-4.76
30060,0.19,0.99,-0.13,0.18,2.01,-4.52
30080,0.19,0.99,-0.13,-0.12,2.26,-4.64
30100,0.19,0.99,-0.13,0.00,2.75,-4.70
30120,0.19,0.99,-0.13,0.43,3.42,-5.74
30140,0.18,0.99,-0.13,0.43,3.91,-6.35
30160,0.18,1.00,-0.13,0.49,4.03,-6.47
30180,0.17,1.00,-0.13,0.85,3.91,-6.47
30200,0.16,1.00,-0.13,0.37,2.50,-5.62
30220,0.16,1.00,-0.13,0.18,1.89,-4.70
30240,0.16,1.00,-0.13,-0.73,1.34,-3.60
30260,0.16,1.00,-0.13,-0.79,0.49,-1.89
30280,0.17,0.99,-0.13,-1.59,0.18,-1.16
30300,0.17,1.00,-0.13,-1.71,0.18,-1.40
30320,0.16,1.00,-0.13,-1.40,0.18,-1.34
30340,0.17,0.99,-0.13,-1.16,0.18,-0.92
30360,0.17,1.00,-0.13,-1.10,0.37,-0.98
30380,0.17,1.00,-0.13,-0.92,0.37,-0.79
30400,0.16,1.00,-0.13,-1.10,0.37,-0.67
30420,0.17,0.99,-0.13,-0.92,0.24,-0.43
30440,0.17,0.99,-0.13,-0.79,0.67,-0.55
30460,0.17,1.00,-0.13,-0.73,0.98,-0.73
30480,0.17,1.00,-0.13,-0.55,0.98,-0.67
30500,0.17,1.00,-0.13,-0.61,1.10,-0.92
30520,0.16,1.00,-0.13,-0.55,0.55,-0.37
30540,0.17,1.00,-0.13,-0.37,0.37,0.18
30560,0.17,0.99,-0.14,-0.37,0.43,0.06
30580,0.17,1.00,-0.14,-1.04,0.55,-0.12
30600,0.17,1.00,-0.13,-1.46,0.43,-0.18
30620,0.17,1.00,-0.13,-1.34,0.43,0.00
30640,0.17,0.99,-0.13,-1.04,0.49,0.00
30660,0.17,1.00,-0.13,-0.98,0.73,-0.06
30680,0.17,1.00,-0.13,-0.98,0.67,0.31
30700,0.17,1.00,-0.13,-0.55,0.55,0.49
30720,0.17,1.00,-0.13,-0.67,0.55,0.73
30740,0.16,1.00,-0.13,-0.85,0.73,0.98
30760,0.16,1.00,-0.13,-1.53,-0.31,2.20
30780,0.16,1.00,-0.14,-2.44,-1.34,3.48
30800,0.12,1.02,-0.12,-4.70,-2.93,6.53
30820,0.15,1.03,-0.12,-10.99,-8.12,17.09
30840,0.16,1.05,-0.12,-12.76,-8.18,22.28
30860,0.14,1.09,-0.13,-11.60,-10.74,27.34
30880,0.17,1.15,-0.19,-8.54,-12.94,35.40
30900,0.21,1.15,-0.21,-7.69,-14.28,38.88
30920,0.15,1.20,-0.23,-8.61,-12.82,43.46
30940,0.22,1.10,-0.19,-18.92,-9.95,52.73
30960,0.25,1.08,-0.19,-26.98,-12.70,57.50
30980,0.25,1.08,-0.17,-33.63,-12.76,60.06
31000,0.27,1.04,-0.06,-39.06,-15.81,66.47
31020,0.36,0.93,-0.00,-42.11,-10.62,70.98
31040,0.34,0.96,-0.03,-41.44,-4.82,72.27
31060,0.44,0.78,0.05,-40.28,-10.07,71.78
31080,0.49,0.70,0.10,-32.47,-6.90,60.42
31100,0.51,0.66,0.14,-25.51,-6.96,49.99
31120,0.56,0.65,0.15,-17.82,-5.13,38.09
31140,0.58,0.61,0.14,-5.86,-2.93,19.53
31160,0.60,0.64,0.15,2.50,-0.73,5.55
31180,0.61,0.60,0.14,10.13,1.46,-7.57
31200,0.59,0.59,0.04,19.41,7.63,-33.45
31220,0.53,0.65,-0.00,23.86,9.03,-48.46
31240,0.47,0.80,-0.03,25.33,9.46,-59.08
31260,0.36,1.10,0.02,28.87,7.14,-60.36
31280,0.42,1.00,0.08,32.04,1.77,-54.81
31300,0.46,0.75,0.07,35.77,12.33,-56.70
31320,0.48,0.36,-0.04,41.81,26.12,-76.54
31340,0.13,1.07,-0.17,37.29,28.63,-86.91
31360,0.13,1.22,-0.18,30.21,18.31,-70.92
31380,0.19,1.15,-0.21,20.26,17.64,-52.25
31400,0.36,1.08,-0.32,15.38,33.57,-53.41
31420,0.21,1.20,-0.52,9.70,46.02,-58.41
31440,-0.19,1.49,0.09,15.87,21.00,-24.66
31460,0.18,1.05,-0.13,4.21,-2.62,7.93
31480,0.26,0.93,-0.18,-0.73,-3.11,8.24
31500,0.30,0.89,-0.20,-4.94,0.49,2.44
31520,0.26,0.93,-0.15,-8.97,0.85,-9.83
31540,0.25,0.98,-0.10,-8.42,-0.37,-15.38
31560,0.18,1.01,-0.11,-5.00,3.60,-15.26
31580,0.16,1.03,-0.10,-2.56,-2.93,-12.08
31600,0.18,1.01,-0.11,-3.97,-1.95,-5.62
31620,0.20,1.00,-0.11,-3.60,-2.56,-3.05
31640,0.20,1.00,-0.12,-2.44,-1.59,-0.85
31660,0.20,0.99,-0.13,-2.14,-1.53,0.00
31680,0.21,0.98,-0.13,-2.50,-1.10,0.49
31700,0.21,0.99,-0.12,-2.75,-0.24,-0.73
31720,0.21,0.99,-0.12,-2.50,0.06,-1.77
31740,0.20,0.99,-0.12,-2.08,0.00,-2.62
31760,0.20,0.99,-0.13,-1.46,-0.37,-3.91
31780,0.19,1.00,-0.12,-1.89,-0.92,-4.46
31800,0.19,1.00,-0.12,-2.20,-1.28,-3.91
31820,0.18,1.00,-0.11,-2.75,-1.46,-2.01
31840,0.20,0.99,-0.11,-2.08,-0.98,-1.16
31860,0.20,0.99,-0.11,-1.46,-0.06,-1.59
31880,0.20,0.99,-0.12,-1.16,0.79,-2.14
31900,0.19,0.99,-0.12,-0.61,0.49,-2.50
31920,0.20,0.99,-0.12,-0.55,0.43,-2.44
31940,0.19,1.00,-0.12,-0.31,0.61,-2.81
31960,0.19,1.00,-0.12,-0.12,0.31,-2.56
31980,0.19,1.00,-0.12,-0.24,0.31,-1.83
32000,0.19,0.99,-0.12,-0.31,0.43,-1.53
32020,0.19,0.99,-0.12,-0.12,1.10,-2.20
32040,0.20,0.99,-0.12,0.61,1.77,-2.56
32060,0.19,0.99,-0.12,0.85,2.44,-2.87
32080,0.19,0.99,-0.13,1.65,3.23,-3.66
32100,0.19,1.00,-0.12,1.77,4.27,-4.15
32120,0.18,1.00,-0.12,2.44,4.58,-4.09
32140,0.17,1.00,-0.12,3.05,4.46,-3.05
32160,0.17,1.00,-0.13,2.50,3.66,-1.83
32180,0.18,0.99,-0.14,1.40,2.75,-1.16
32200,0.18,0.99,-0.14,-0.18,2.93,-1.65
32220,0.15,1.00,-0.12,-1.16,2.20,-1.04
32240,0.16,1.00,-0.13,-2.26,0.00,1.71
32260,0.17,0.99,-0.14,-4.58,-1.53,2.56
32280,0.15,1.01,-0.13,-9.03,-3.72,4.46
32300,0.14,1.02,-0.12,-13.61,-6.16,8.30
32320,0.14,1.03,-0.10,-17.58,-9.09,14.40
32340,0.17,1.08,-0.13,-21.73,-12.15,24.96
32360,0.16,1.11,-0.19,-19.84,-11.96,31.49
32380,0.15,1.23,-0.22,-18.13,-15.20,37.11
32400,0.23,1.19,-0.20,-14.04,-13.24,48.52
32420,0.21,1.16,-0.18,-22.46,-10.86,54.99
32440,0.25,1.08,-0.15,-29.48,-11.96,59.20
32460,0.26,1.03,-0.07,-35.71,-13.06,61.46
32480,0.29,1.03,-0.01,-37.17,-11.66,65.19
32500,0.35,0.91,0.09,-36.50,-7.45,67.32
32520,0.38,0.83,0.01,-37.54,0.61,67.99
32540,0.49,0.68,0.05,-33.69,-2.87,64.45
32560,0.52,0.62,0.06,-30.46,-0.37,49.01
32580,0.57,0.56,0.14,-17.21,0.24,26.00
32600,0.57,0.59,0.24,-4.58,0.12,9.46
32620,0.59,0.59,0.25,7.51,1.04,-6.47
32640,0.58,0.60,0.17,22.95,7.45,-34.30
32660,0.51,0.63,0.04,31.07,9.40,-50.54
32680,0.45,0.70,-0.08,34.61,9.77,-63.54
32700,0.37,0.95,-0.11,32.96,7.39,-72.39
32720,0.35,1.05,0.09,35.58,-2.75,-62.68
32740,0.40,0.76,0.15,42.72,6.47,-62.26
32760,0.27,0.81,0.05,49.50,18.55,-68.54
32780,0.21,0.97,-0.18,47.24,31.80,-67.50
32800,0.40,1.02,-0.43,32.35,41.99,-70.25
32820,-0.16,1.78,-1.34,13.00,70.07,-85.63
32840,-0.15,1.48,0.16,33.33,2.69,-41.99
32860,0.12,1.04,-0.13,-0.85,0.79,4.58
32880,0.24,0.97,-0.14,-7.63,-5.19,4.82
32900,0.24,0.95,-0.16,-3.97,2.01,-0.49
32920,0.24,0.94,-0.19,-3.42,1.89,-5.19
32940,0.23,0.96,-0.18,-6.47,2.08,-10.19
32960,0.20,1.01,-0.12,-6.23,1.04,-15.20
32980,0.15,1.02,-0.10,-1.59,-0.31,-14.53
33000,0.16,1.01,-0.11,0.61,-0.98,-11.54
33020,0.17,1.00,-0.12,1.34,-0.55,-8.18
33040,0.17,1.00,-0.14,0.79,-0.24,-5.98
33060,0.16,1.00,-0.13,-1.04,-0.61,-3.36
33080,0.18,0.99,-0.14,-2.14,-0.49,-0.85
33100,0.18,0.99,-0.13,-1.89,0.37,-0.92
33120,0.18,0.99,-0.13,-0.67,1.22,-1.34
33140,0.18,0.99,-0.14,0.55,1.77,-1.59
33160,0.17,0.99,-0.14,1.10,2.01,-1.83
33180,0.17,0.99,-0.14,0.18,1.59,-2.01
33200,0.17,0.99,-0.14,-1.04,0.61,-2.20
33220,0.17,1.00,-0.13,-1.46,-0.24,-2.01
33240,0.17,1.00,-0.14,-0.49,0.06,-1.28
33260,0.17,1.00,-0.14,-0.73,0.31,-0.79
33280,0.17,1.00,-0.13,-0.37,0.98,-0.85
33300,0.17,0.99,-0.14,-0.37,1.16,-0.61
33320,0.17,0.99,-0.14,-0.06,1.10,-0.98
33340,0.17,1.00,-0.14,0.37,1.46,-1.04
33360,0.17,1.00,-0.14,-0.06,1.34,-0.92
33380,0.17,1.00,-0.14,0.24,1.16,-0.61
33400,0.17,1.00,-0.14,1.65,1.10,0.12
33420,0.17,0.99,-0.14,1.59,1.28,0.31
33440,0.17,0.99,-0.14,1.28,1.34,0.31
33460,0.17,0.99,-0.14,2.99,1.83,1.16
33480,0.17,0.99,-0.15,3.17,1.77,1.10
33500,0.17,0.99,-0.15,2.08,1.71,0.92
33520,0.17,0.99,-0.15,2.01,1.46,0.49
33540,0.17,0.99,-0.15,1.89,1.53,0.61
33560,0.17,0.99,-0.16,1.04,1.65,0.37
33580,0.17,0.99,-0.15,0.06,1.28,-0.24
33600,0.17,0.99,-0.15,-0.67,1.53,-0.43
33620,0.17,0.99,-0.15,-0.55,1.28,-0.43
33640,0.17,0.99,-0.15,-0.92,1.40,-0.55
33660,0.17,0.99,-0.16,-2.38,1.53,-0.73
33680,0.15,1.00,-0.15,-3.42,0.92,-0.49
33700,0.16,0.99,-0.16,-4.88,-0.55,1.46
33720,0.16,0.99,-0.15,-8.91,-2.32,2.38
33740,0.15,1.00,-0.15,-12.33,-3.48,3.85
33760,0.14,1.02,-0.12,-16.91,-7.26,6.65
33780,0.16,1.01,-0.14,-23.32,-11.29,12.76
33800,0.17,1.03,-0.11,-25.33,-12.88,14.10
33820,0.17,1.04,-0.12,-26.43,-11.90,17.33
33840,0.20,1.08,-0.16,-28.69,-13.24,27.10
33860,0.16,1.22,-0.13,-23.19,-16.72,33.26
33880,0.22,1.21,-0.13,-18.49,-15.38,43.33
33900,0.16,1.22,-0.14,-21.48,-11.41,58.04
33920,0.20,1.14,-0.13,-29.24,-9.03,62.87
33940,0.25,1.05,-0.08,-32.17,-9.52,67.69
33960,0.32,0.89,-0.03,-34.91,-7.75,71.41
33980,0.36,0.86,0.00,-36.25,-1.65,67.32
34000,0.42,0.80,0.08,-34.55,-3.91,64.76
34020,0.43,0.79,0.06,-30.58,0.00,56.70
34040,0.52,0.67,0.07,-24.72,-0.73,42.30
34060,0.54,0.66,0.09,-19.59,0.61,29.66
34080,0.56,0.65,0.13,-13.37,0.92,14.65
34100,0.59,0.59,0.19,1.22,-0.12,-6.71
34120,0.57,0.59,0.23,12.51,1.71,-25.21
34140,0.50,0.65,0.17,25.15,5.31,-41.75
34160,0.44,0.78,-0.01,34.85,7.14,-60.61
34180,0.41,0.80,-0.09,34.36,3.72,-68.97
34200,0.39,0.88,-0.06,29.97,0.73,-73.61
34220,0.27,0.96,0.12,35.03,-0.49,-71.41
34240,0.17,1.08,0.05,44.07,10.50,-67.50
34260,0.17,1.10,-0.02,48.22,15.87,-57.31
34280,0.23,0.99,-0.17,39.73,28.69,-52.61
34300,0.46,1.05,-0.60,23.93,46.26,-65.92
34320,0.13,1.35,-0.24,33.87,45.96,-74.04
34340,-0.25,1.48,0.18,31.25,-2.01,-17.03
34360,0.23,0.95,-0.18,-5.55,-0.98,7.08
34380,0.24,0.96,-0.13,-6.47,-2.81,-1.83
34400,0.22,0.97,-0.14,-4.21,5.00,-5.43
34420,0.21,0.97,-0.15,-3.23,3.05,-10.93
34440,0.18,0.99,-0.13,-2.20,2.50,-13.37
34460,0.16,0.99,-0.13,-0.98,0.37,-13.18
34480,0.15,1.01,-0.12,-1.53,-1.95,-10.74
34500,0.14,1.01,-0.11,-2.44,-2.26,-7.32
34520,0.16,1.01,-0.11,-2.08,-2.44,-3.91
34540,0.16,1.00,-0.13,-1.34,-1.59,-1.40
34560,0.17,0.99,-0.13,-1.95,-0.98,-0.55
34580,0.17,0.99,-0.13,-3.05,-0.79,-0.24
34600,0.17,1.00,-0.12,-2.38,-0.49,0.18
34620,0.17,0.99,-0.13,-1.59,0.12,-0.49
34640,0.17,1.00,-0.12,-1.16,0.12,-1.04
34660,0.17,0.99,-0.13,-0.98,-0.12,-1.34
34680,0.16,1.00,-0.12,-1.22,-0.61,-0.55
34700,0.17,1.00,-0.12,-1.34,-0.43,-0.12
34720,0.17,1.00,-0.12,-1.28,0.37,-0.24
34740,0.17,1.00,-0.12,-0.85,0.85,-0.18
34760,0.17,0.99,-0.13,-0.67,0.98,-0.49
34780,0.17,0.99,-0.13,-0.61,1.22,-0.79
34800,0.17,0.99,-0.13,-0.67,1.10,-1.10
34820,0.17,1.00,-0.12,-0.92,0.98,-1.34
34840,0.17,1.00,-0.12,0.18,1.34,-1.22
34860,0.17,1.00,-0.13,1.71,2.44,-0.92
34880,0.17,1.00,-0.13,1.22,2.87,-0.92
34900,0.16,1.00,-0.12,0.92,2.32,-0.67
34920,0.17,1.00,-0.13,0.24,1.34,0.37
34940,0.17,1.00,-0.13,-0.06,1.34,0.37
34960,0.17,0.99,-0.13,0.12,1.28,0.24
34980,0.17,1.00,-0.13,-0.18,1.22,0.06
35000,0.16,1.00,-0.13,-0.43,1.28,0.12
35020,0.16,1.00,-0.13,-1.04,0.85,0.37
35040,0.17,0.99,-0.13,-2.01,0.18,0.92
35060,0.17,0.99,-0.13,-2.14,0.12,0.92
35080,0.17,0.99,-0.13,-1.77,0.49,0.49
35100,0.17,1.00,-0.13,-0.79,1.04,0.61
35120,0.17,1.00,-0.13,-1.16,0.98,0.49
35140,0.17,1.00,-0.13,-1.40,0.73,1.16
35160,0.17,0.99,-0.13,-1.22,0.61,1.59
35180,0.17,1.00,-0.13,-2.08,0.37,1.83
35200,0.17,1.00,-0.12,-2.26,0.24,2.20
35220,0.17,0.99,-0.13,-3.05,0.12,2.44
35240,0.18,0.99,-0.13,-4.52,-0.31,2.87
35260,0.18,1.00,-0.13,-5.25,-0.73,2.69
35280,0.18,1.00,-0.12,-5.98,-1.34,3.11
35300,0.18,1.00,-0.12,-5.80,-1.53,3.48
35320,0.18,1.00,-0.12,-6.53,-1.22,3.91
35340,0.18,1.00,-0.11,-7.32,-1.77,4.76
35360,0.18,1.00,-0.12,-8.73,-1.65,7.51
35380,0.20,1.00,-0.10,-10.07,-2.32,8.79
35400,0.21,0.99,-0.11,-9.83,-1.10,9.40
35420,0.20,1.00,-0.11,-8.67,-1.04,8.67
35440,0.21,1.00,-0.09,-7.51,-1.53,9.34
35460,0.21,1.01,-0.10,-6.41,-1.40,10.01
35480,0.22,0.99,-0.10,-5.37,-2.26,10.07
35500,0.23,1.00,-0.10,-4.64,-1.71,9.09
35520,0.24,0.98,-0.09,-4.33,-1.16,8.42
35540,0.24,0.98,-0.11,-5.25,-0.37,6.77
35560,0.24,0.99,-0.10,-5.98,-0.24,6.16
35580,0.24,0.99,-0.08,-6.16,-0.49,5.98
35600,0.25,0.98,-0.08,-6.23,0.37,5.19
35620,0.26,0.97,-0.08,-4.76,1.95,4.39
35640,0.26,0.94,-0.08,-2.99,4.09,4.09
35660,0.26,0.95,-0.07,-4.76,4.27,2.56
35680,0.24,0.99,-0.06,-6.65,1.95,1.95
35700,0.26,0.97,-0.08,-6.65,1.95,1.95
35720,0.26,0.97,-0.09,-7.75,2.38,0.31
35740,0.26,0.98,-0.09,-8.85,2.44,-1.71
35760,0.25,0.99,-0.08,-9.95,1.65,-2.44
35780,0.23,1.00,-0.08,-10.93,1.28,-1.77
35800,0.24,1.00,-0.08,-15.14,0.79,-0.85
35820,0.24,1.01,-0.08,-17.52,0.00,-0.43
35840,0.24,1.01,-0.06,-19.41,-0.79,0.55
35860,0.26,0.99,-0.06,-21.79,-1.65,0.61
35880,0.25,0.99,-0.03,-23.62,-2.44,0.06
35900,0.24,1.00,-0.01,-23.99,-2.87,0.73
35920,0.25,0.99,-0.00,-24.48,-2.26,1.28
35940,0.25,1.00,0.02,-23.62,-3.42,2.01
35960,0.26,0.98,0.01,-22.34,-3.42,2.44
35980,0.25,1.00,0.02,-21.79,-3.60,2.32
36000,0.25,1.00,0.05,-21.00,-4.46,4.15
36020,0.28,0.97,0.03,-21.48,-3.17,4.82
36040,0.26,1.00,0.03,-22.83,-2.08,3.60
36060,0.27,0.99,0.07,-21.85,-3.23,4.70
36080,0.27,0.97,0.06,-21.00,-2.69,4.21
36100,0.27,0.99,0.08,-20.75,-3.42,3.30
36120,0.26,0.99,0.14,-16.72,-4.52,3.17
36140,0.27,0.99,0.16,-11.41,-4.94,4.46
36160,0.27,0.99,0.14,-8.73,-2.20,5.00
36180,0.29,0.96,0.10,-6.41,0.98,3.97
36200,0.31,0.94,0.09,-4.70,1.28,2.20
36220,0.29,0.95,0.12,-2.32,0.67,-0.73
36240,0.26,1.01,0.20,6.41,-1.04,-0.79
36260,0.28,0.98,0.14,11.84,0.49,1.71
36280,0.30,0.96,0.07,10.93,3.66,1.22
36300,0.30,0.95,0.01,7.26,4.64,-2.38
36320,0.30,0.94,0.01,4.94,2.50,-5.43
36340,0.27,0.98,0.06,3.42,0.18,-8.06
36360,0.26,0.99,0.11,4.33,-0.55,-7.02
36380,0.27,0.99,0.10,4.39,0.85,-6.35
36400,0.28,0.97,0.06,4.64,1.95,-6.29
36420,0.28,0.96,0.04,3.91,2.26,-8.85
36440,0.25,1.00,0.06,2.20,1.04,-9.34
36460,0.26,0.99,0.06,1.95,0.18,-7.93
36480,0.25,1.00,0.05,0.43,1.04,-7.51
36500,0.25,0.99,0.05,-1.95,1.53,-7.87
36520,0.25,0.99,0.06,-2.38,1.04,-7.93
36540,0.25,0.99,0.06,-2.81,0.73,-8.12
36560,0.24,1.00,0.08,-2.75,0.24,-7.75
36580,0.23,1.01,0.10,-1.65,0.49,-6.77
36600,0.23,1.01,0.11,0.61,0.98,-5.13
36620,0.23,1.00,0.08,2.50,1.77,-2.62
36640,0.24,0.99,0.04,2.44,2.26,-1.77
36660,0.24,0.99,0.04,1.77,2.26,-2.32
36680,0.24,1.00,0.05,0.18,1.40,-2.50
36700,0.24,0.99,0.05,-0.79,0.92,-2.56
36720,0.24,0.99,0.06,-0.98,0.73,-2.93
36740,0.24,0.99,0.07,-0.79,1.04,-3.05
36760,0.23,0.99,0.06,-0.98,1.22,-3.17
36780,0.23,1.01,0.06,-1.22,1.22,-2.87
36800,0.23,1.00,0.05,-1.95,1.46,-1.46
36820,0.22,1.00,0.06,-2.32,0.98,-0.61
36840,0.22,1.01,0.06,-2.44,0.49,0.79
36860,0.23,1.00,0.06,-2.75,0.31,2.08
36880,0.23,1.01,0.06,-4.15,0.06,2.50
36900,0.23,1.01,0.06,-4.39,-0.49,3.91
36920,0.24,1.00,0.04,-5.19,-0.24,4.94
36940,0.24,1.00,0.05,-7.57,-0.79,5.43
36960,0.24,1.00,0.06,-8.91,-0.49,5.74
36980,0.24,1.00,0.08,-9.28,-1.04,5.98
37000,0.22,1.03,0.15,-7.75,-2.14,7.69
37020,0.24,1.02,0.17,-3.60,-2.81,11.35
37040,0.29,0.96,0.09,1.10,-0.73,13.73
37060,0.31,0.94,0.01,0.49,0.85,13.43
37080,0.27,0.97,-0.01,-4.27,2.56,10.50
37100,0.28,0.97,0.01,-8.18,-1.22,9.34
37120,0.27,0.99,0.10,-13.18,-4.64,9.16
37140,0.28,1.00,0.13,-14.65,-5.00,9.34
37160,0.28,1.01,0.16,-12.08,-3.85,9.95
37180,0.29,0.99,0.16,-5.07,-1.10,11.29
37200,0.31,0.95,0.08,-5.74,0.98,9.46
37220,0.30,0.98,0.07,-7.81,1.04,8.36
37240,0.30,0.98,0.08,-8.91,0.24,10.38
37260,0.29,1.04,0.14,-8.54,-1.04,12.94
37280,0.29,1.02,0.17,-5.25,-0.31,16.91
37300,0.30,1.03,0.17,-2.62,1.10,20.63
37320,0.33,0.97,0.11,-0.73,3.17,23.01
37340,0.34,0.97,0.07,-2.14,4.33,23.25
37360,0.34,0.96,0.06,-4.94,3.91,24.11
37380,0.37,0.95,0.06,-9.28,1.65,25.21
37400,0.36,0.98,0.13,-9.58,0.55,25.63
37420,0.37,0.96,0.17,-7.57,0.18,27.83
37440,0.40,0.90,0.15,-4.46,2.08,28.08
37460,0.42,0.89,0.14,-3.42,3.17,25.94
37480,0.43,0.87,0.11,-4.33,4.09,22.95
37500,0.44,0.90,0.11,-5.98,3.36,19.53
37520,0.43,0.91,0.13,-6.35,2.44,18.13
37540,0.44,0.91,0.15,-4.94,1.65,17.70
37560,0.46,0.87,0.15,-3.66,1.71,15.38
37580,0.45,0.91,0.14,-5.25,1.40,12.88
37600,0.46,0.89,0.13,-5.37,1.22,12.94
37620,0.46,0.90,0.11,-8.36,1.46,12.39
37640,0.45,0.94,0.13,-8.24,1.59,13.43
37660,0.47,0.90,0.14,-8.67,0.79,15.99
37680,0.48,0.89,0.14,-9.28,1.34,15.63
37700,0.49,0.93,0.18,-8.18,2.38,16.05
37720,0.52,0.86,0.22,-2.32,3.05,15.99
37740,0.54,0.80,0.26,3.48,4.33,12.27
37760,0.52,0.86,0.33,16.11,6.77,4.76
37780,0.51,0.86,0.27,23.62,7.39,2.50
37800,0.52,0.80,0.12,27.53,6.59,0.67
37820,0.51,0.80,-0.03,22.71,5.92,-5.25
37840,0.48,0.89,-0.02,15.63,4.58,-7.69
37860,0.51,0.86,0.01,10.44,0.67,-7.26
37880,0.52,0.85,0.06,3.05,0.79,-9.46
37900,0.51,0.84,0.07,0.43,2.87,-12.08
37920,0.51,0.84,0.08,-0.31,3.78,-15.20
37940,0.48,0.87,0.17,4.21,3.23,-19.65
37960,0.46,0.95,0.17,7.69,3.05,-21.06
37980,0.48,0.91,0.13,11.72,2.87,-19.53
38000,0.48,0.86,0.05,15.01,5.31,-22.46
38020,0.49,0.80,0.06,15.26,5.68,-26.98
38040,0.43,0.90,0.04,14.83,5.43,-31.56
38060,0.43,0.93,0.05,13.55,1.34,-32.10
38080,0.39,0.99,0.06,13.00,-0.06,-29.42
38100,0.41,0.95,0.01,11.05,1.04,-26.61
38120,0.41,0.92,0.03,10.19,2.62,-28.38
38140,0.35,1.01,0.07,10.44,1.34,-26.79
38160,0.34,1.02,0.03,11.66,2.38,-21.97
38180,0.38,0.95,-0.01,11.35,2.20,-18.92
38200,0.39,0.87,-0.00,8.61,3.78,-22.16
38220,0.33,0.98,0.06,7.51,2.75,-25.33
38240,0.30,1.04,0.04,8.54,0.98,-22.40
38260,0.33,0.98,-0.01,9.64,1.10,-17.21
38280,0.36,0.93,-0.01,8.12,1.40,-18.01
38300,0.37,0.88,-0.04,7.75,4.21,-21.97
38320,0.29,0.94,0.07,10.50,4.46,-30.58
38340,0.24,1.06,0.08,14.16,0.37,-27.59
38360,0.27,1.04,-0.01,17.52,0.79,-20.32
38380,0.30,0.96,-0.09,16.66,4.70,-19.71
38400,0.32,0.91,-0.10,13.31,7.51,-23.86
38420,0.29,0.94,-0.03,9.28,8.61,-30.40
38440,0.14,1.15,0.03,10.19,2.87,-23.62
38460,0.21,1.10,-0.07,13.12,4.39,-10.50
38480,0.23,1.03,-0.09,15.32,5.07,-5.74
38500,0.28,0.95,-0.12,13.06,7.39,-8.30
38520,0.30,0.93,-0.10,6.23,9.34,-15.87
38540,0.14,1.07,-0.08,5.92,9.95,-19.78
38560,0.15,1.05,-0.12,4.52,1.71,-12.21
38580,0.22,1.01,-0.08,-4.15,-5.07,-6.10
38600,0.24,1.01,-0.06,-2.50,-2.93,-3.05
38620,0.24,0.99,-0.04,0.85,-1.46,-2.69
38640,0.23,0.97,-0.06,6.35,1.77,-7.14
38660,0.21,0.99,-0.09,8.54,2.93,-11.54
38680,0.21,1.00,-0.11,6.84,1.59,-12.88
38700,0.20,1.00,-0.09,2.62,0.00,-9.64
38720,0.21,1.00,-0.09,2.81,-0.06,-6.65
38740,0.21,1.00,-0.08,2.93,1.28,-5.62
38760,0.21,0.99,-0.08,6.47,3.30,-7.63
38780,0.18,1.01,-0.08,8.73,3.30,-8.24
38800,0.19,1.00,-0.09,9.77,0.12,-6.04
38820,0.19,0.99,-0.12,7.39,-0.79,-4.15
38840,0.20,0.99,-0.12,4.70,-1.04,-4.70
38860,0.20,0.99,-0.11,3.66,-0.49,-5.98
38880,0.20,0.99,-0.12,3.23,-0.06,-8.00
38900,0.18,0.99,-0.11,3.54,0.18,-8.54
38920,0.17,1.00,-0.12,4.09,1.10,-9.58
38940,0.18,1.00,-0.11,1.89,0.55,-8.00
38960,0.18,0.99,-0.12,1.59,0.98,-8.36
38980,0.18,1.00,-0.12,1.34,1.46,-8.79
39000,0.16,1.00,-0.11,1.28,2.14,-8.48
39020,0.17,1.00,-0.11,0.67,2.56,-7.14
39040,0.17,1.00,-0.12,0.79,2.99,-6.53
39060,0.16,1.00,-0.12,0.79,3.05,-6.59
39080,0.15,1.00,-0.12,1.40,2.62,-5.55
39100,0.15,1.00,-0.12,1.04,2.44,-3.54
39120,0.15,1.00,-0.12,0.55,1.71,-2.14
39140,0.15,1.00,-0.12,0.73,1.53,-0.73
39160,0.16,1.00,-0.12,0.79,1.53,0.00
39180,0.15,1.00,-0.12,0.61,1.22,0.06
39200,0.15,1.00,-0.13,0.61,1.40,0.61
39220,0.15,1.00,-0.13,0.24,0.73,0.92
39240,0.16,1.00,-0.13,-0.43,0.49,1.22
39260,0.16,1.00,-0.13,-1.40,0.18,1.22
39280,0.16,1.00,-0.12,-1.95,0.12,1.40
39300,0.16,1.00,-0.13,-2.08,-0.37,1.65
39320,0.16,1.00,-0.13,-2.81,-0.73,1.71
39340,0.16,1.00,-0.12,-3.60,-0.55,1.71
39360,0.16,1.00,-0.12,-3.66,-0.73,2.08
39380,0.16,1.00,-0.12,-4.09,-0.55,2.93
39400,0.16,1.00,-0.12,-4.52,-1.04,4.64
39420,0.17,1.00,-0.12,-5.19,-1.34,6.65
39440,0.16,1.01,-0.10,-6.35,-1.65,8.42
39460,0.17,1.01,-0.10,-7.02,-2.20,13.98
39480,0.18,1.01,-0.11,-6.96,-2.20,16.60
39500,0.18,1.01,-0.11,-6.77,-1.83,19.04
39520,0.20,1.03,-0.10,-6.10,-3.54,22.34
39540,0.21,1.02,-0.14,-4.70,-2.20,22.28
39560,0.21,1.02,-0.14,-4.09,-3.23,21.91
39580,0.20,1.07,-0.15,-6.71,-3.60,22.28
39600,0.24,1.03,-0.16,-9.40,-3.60,23.13
39620,0.25,1.00,-0.13,-10.99,-4.70,24.17
39640,0.26,0.98,-0.11,-15.20,-5.07,23.56
39660,0.27,0.99,-0.08,-17.09,-5.19,22.83
39680,0.28,0.99,-0.06,-17.88,-5.62,23.13
39700,0.29,0.97,-0.05,-17.03,-4.76,22.95
39720,0.32,0.93,-0.03,-15.93,-3.05,21.55
39740,0.32,0.92,-0.03,-13.61,-1.59,19.65
39760,0.32,0.95,-0.04,-12.88,-0.98,17.52
39780,0.33,0.96,-0.01,-11.05,-1.28,17.09
39800,0.34,0.94,-0.02,-8.97,0.06,17.88
39820,0.33,0.97,-0.05,-8.67,1.16,16.91
39840,0.32,1.02,-0.05,-10.31,-0.31,18.98
39860,0.34,1.00,-0.07,-13.31,-1.59,22.03
39880,0.34,1.01,-0.10,-17.94,-1.40,23.80
39900,0.35,1.03,-0.04,-24.54,-3.48,28.02
39920,0.35,1.02,-0.01,-25.33,-4.21,32.65
39940,0.40,0.93,0.04,-24.90,-5.31,36.80
39960,0.45,0.85,0.04,-23.44,-1.77,34.48
39980,0.44,0.86,0.05,-20.51,-1.65,29.85
40000,0.47,0.85,0.07,-18.37,-2.50,27.53
40020,0.46,0.88,0.10,-12.70,-2.81,22.46
40040,0.46,0.89,0.11,-8.97,-2.32,20.57
40060,0.47,0.91,0.11,-5.86,-2.26,18.80
40080,0.48,0.89,0.08,-1.46,-1.10,17.09
40100,0.47,0.93,0.07,0.24,-0.12,16.30
40120,0.47,0.92,0.03,-0.06,-0.06,18.55
40140,0.49,0.87,-0.01,-4.64,0.85,19.90
40160,0.49,0.91,-0.02,-8.18,1.28,18.92
40180,0.51,0.89,0.03,-10.74,0.43,19.96
40200,0.54,0.85,0.06,-11.35,0.67,17.27
40220,0.60,0.70,0.15,-6.77,1.22,10.62
40240,0.57,0.73,0.17,-3.72,3.72,1.16
40260,0.56,0.74,0.14,-0.55,5.37,-6.65
40280,0.56,0.75,0.05,3.11,5.55,-17.46
40300,0.54,0.82,0.03,5.55,5.37,-24.60
40320,0.52,0.86,0.06,7.93,3.54,-29.17
40340,0.49,0.87,0.09,10.31,2.08,-32.96
40360,0.47,0.90,0.05,11.17,1.95,-34.18
40380,0.46,0.93,0.01,11.78,1.77,-33.57
40400,0.45,0.92,0.04,12.88,-0.43,-32.17
40420,0.45,0.87,0.04,14.47,0.43,-31.74
40440,0.42,0.89,0.05,15.50,0.92,-33.02
40460,0.41,0.94,0.00,15.99,0.31,-33.02
40480,0.40,0.94,-0.03,14.47,1.10,-32.84
40500,0.40,0.95,-0.01,13.24,1.40,-33.20
40520,0.40,0.90,0.08,15.63,2.81,-34.91
40540,0.31,1.01,0.05,20.75,4.09,-34.48
40560,0.33,1.00,-0.03,21.61,4.76,-30.27
40580,0.35,0.97,-0.09,17.94,8.12,-28.56
40600,0.36,0.92,-0.09,14.59,8.30,-29.91
40620,0.30,0.91,-0.05,12.51,9.22,-33.75
40640,0.22,1.08,-0.02,14.59,5.19,-28.93
40660,0.29,1.01,-0.09,15.14,1.59,-20.32
40680,0.31,0.98,-0.12,11.84,4.46,-21.00
40700,0.30,0.98,-0.12,9.70,5.68,-23.07
40720,0.26,0.96,-0.03,7.08,8.24,-27.89
40740,0.19,1.11,-0.03,9.64,7.26,-26.06
40760,0.23,1.07,-0.09,12.27,6.41,-15.56
40780,0.26,1.01,-0.16,9.89,7.75,-12.15
40800,0.26,0.98,-0.16,5.49,7.69,-12.57
40820,0.27,0.95,-0.14,0.79,7.39,-14.71
40840,0.20,1.04,-0.09,-1.28,11.54,-21.06
40860,0.13,1.09,-0.09,2.69,8.24,-17.52
40880,0.21,1.02,-0.10,6.96,2.44,-9.34
40900,0.22,0.99,-0.13,4.09,1.34,-6.90
40920,0.24,0.98,-0.12,3.54,2.20,-6.90
40940,0.24,0.98,-0.12,2.20,4.88,-8.61
40960,0.25,0.96,-0.11,5.19,9.95,-15.08
40980,0.20,1.00,-0.12,10.13,10.62,-18.31
41000,0.18,1.00,-0.13,10.68,10.13,-18.74
41020,0.17,1.00,-0.14,9.09,7.51,-15.93
41040,0.16,1.00,-0.14,2.62,6.16,-14.47
41060,0.16,1.00,-0.13,0.24,4.03,-12.51
41080,0.16,1.00,-0.13,-1.22,2.69,-11.11
41100,0.16,1.00,-0.12,-1.40,1.40,-8.73
41120,0.16,1.00,-0.13,-0.92,1.46,-7.39
41140,0.16,1.00,-0.13,-1.53,0.85,-6.41
41160,0.16,1.00,-0.13,-2.14,0.67,-5.74
41180,0.15,1.00,-0.12,-2.32,0.37,-4.76
41200,0.15,1.00,-0.13,-2.14,-0.06,-4.03
41220,0.15,1.00,-0.13,-1.46,-0.12,-2.93
41240,0.15,1.00,-0.13,-0.92,-0.37,-2.38
41260,0.15,1.00,-0.13,-0.73,-0.06,-2.32
41280,0.15,1.00,-0.13,-0.79,0.18,-1.53
41300,0.15,1.00,-0.13,-0.92,0.06,-1.53
41320,0.16,1.00,-0.13,-0.79,0.18,-1.22
41340,0.15,1.00,-0.13,0.00,0.49,-0.92
41360,0.15,1.00,-0.13,0.43,0.79,-0.61
41380,0.15,1.00,-0.13,-0.12,0.73,-0.73
41400,0.15,1.00,-0.14,-0.85,0.61,-0.49
41420,0.15,1.00,-0.13,-1.46,0.37,-0.55
41440,0.15,1.00,-0.13,-1.89,-0.18,0.06
41460,0.15,1.00,-0.13,-2.20,-0.43,0.24
41480,0.16,1.00,-0.13,-1.95,-1.16,0.49
41500,0.16,1.00,-0.13,-2.14,-1.34,0.18
41520,0.15,1.00,-0.13,-1.77,-1.34,0.12
41540,0.16,1.00,-0.13,-2.56,-2.56,2.08
41560,0.15,1.00,-0.14,-3.17,-2.56,2.14
41580,0.17,1.00,-0.13,-3.97,-3.23,2.26
41600,0.17,1.00,-0.12,-4.15,-2.87,2.32
41620,0.16,1.00,-0.12,-4.15,-1.83,2.26
41640,0.17,1.00,-0.12,-4.03,-1.46,2.50
41660,0.17,1.00,-0.12,-3.66,-1.04,2.75
41680,0.17,1.00,-0.13,-3.48,-0.92,2.75
41700,0.18,0.99,-0.12,-3.48,-1.16,2.87
41720,0.18,0.99,-0.12,-3.17,-0.24,2.44
41740,0.17,1.00,-0.12,-3.17,0.00,2.44
41760,0.17,1.00,-0.12,-3.42,-0.43,2.69
41780,0.18,1.00,-0.12,-3.66,-0.55,3.30
41800,0.18,1.00,-0.11,-2.87,-0.06,3.85
41820,0.18,1.00,-0.11,-3.23,0.55,4.39
41840,0.18,1.00,-0.11,-3.48,0.79,4.76
41860,0.18,1.00,-0.12,-4.15,0.18,5.43
41880,0.17,1.01,-0.11,-5.80,-0.98,7.51
41900,0.18,1.02,-0.10,-7.51,-2.75,12.21
41920,0.19,1.01,-0.11,-7.69,-1.40,13.61
41940,0.20,1.02,-0.11,-7.26,-1.83,14.47
41960,0.20,1.01,-0.13,-7.39,-1.34,15.26
41980,0.21,1.02,-0.11,-6.71,-3.30,17.46
42000,0.23,1.06,-0.12,-6.47,-3.60,19.53
42020,0.22,1.08,-0.10,-6.29,-5.74,24.17
42040,0.21,1.10,-0.13,-5.31,-4.64,31.80
42060,0.24,1.07,-0.12,-7.51,-7.02,36.99
42080,0.25,1.05,-0.16,-10.31,-6.77,39.98
42100,0.26,1.05,-0.13,-17.09,-8.97,42.48
42120,0.30,0.99,-0.10,-20.57,-10.80,44.80
42140,0.32,0.96,-0.08,-23.07,-10.80,44.80
42160,0.34,0.90,-0.03,-25.70,-10.31,45.17
42180,0.40,0.86,0.00,-25.57,-8.18,43.21
42200,0.37,0.89,-0.00,-23.62,-4.27,39.86
42220,0.44,0.84,0.05,-18.74,-8.12,34.48
42240,0.45,0.83,0.07,-14.53,-4.39,29.36
42260,0.46,0.83,0.06,-10.01,-1.65,24.35
42280,0.47,0.85,0.07,-5.86,0.98,15.93
42300,0.46,0.87,0.02,-0.61,0.61,12.63
42320,0.45,0.89,-0.01,1.83,-0.31,10.25
42340,0.45,0.88,-0.02,1.59,-1.40,9.40
42360,0.46,0.90,-0.02,-0.79,-1.22,7.51
42380,0.45,0.91,-0.02,-2.62,-0.43,6.84
42400,0.45,0.94,-0.01,-3.30,0.00,7.02
42420,0.47,0.91,-0.00,-4.33,-0.12,8.79
42440,0.46,0.91,-0.01,-4.94,0.98,8.36
42460,0.47,0.91,-0.00,-5.86,0.31,8.30
42480,0.48,0.88,0.00,-7.20,0.24,7.69
42500,0.49,0.86,-0.01,-8.18,0.92,6.04
42520,0.50,0.83,0.01,-8.73,0.49,3.85
42540,0.49,0.86,0.03,-7.93,0.85,0.06
42560,0.50,0.87,0.06,-6.84,0.49,-2.50
42580,0.50,0.87,0.08,-4.15,1.34,-5.31
42600,0.50,0.85,0.07,0.85,3.05,-10.38
42620,0.48,0.87,0.04,3.11,2.87,-12.63
42640,0.48,0.87,0.01,4.64,3.30,-15.14
42660,0.49,0.85,0.03,6.90,3.23,-20.57
42680,0.47,0.84,0.04,9.09,4.15,-25.21
42700,0.44,0.87,0.02,11.54,3.78,-29.60
42720,0.42,0.94,0.03,13.85,1.77,-30.40
42740,0.43,0.90,-0.01,16.72,2.26,-31.31
42760,0.44,0.85,-0.01,17.27,3.11,-34.24
42780,0.40,0.84,-0.01,17.27,5.98,-39.43
42800,0.34,0.99,-0.05,17.88,3.97,-39.61
42820,0.32,1.03,-0.08,17.52,3.23,-35.22
42840,0.35,0.97,-0.06,16.48,2.08,-31.25
42860,0.34,0.92,-0.09,12.39,7.87,-32.47
42880,0.30,0.94,-0.06,9.70,8.36,-34.91
42900,0.27,1.01,-0.08,7.81,6.96,-33.39
42920,0.26,1.07,-0.09,6.16,6.23,-28.44
42940,0.30,0.98,-0.07,8.18,6.41,-24.72
42960,0.30,0.95,-0.09,8.97,9.95,-26.18
42980,0.23,1.02,-0.05,8.61,9.95,-28.32
43000,0.27,1.01,-0.10,8.54,8.97,-25.27
43020,0.27,1.01,-0.16,7.69,12.63,-24.11
43040,0.24,1.05,-0.19,4.70,15.20,-24.90
43060,0.23,1.01,-0.15,0.73,13.61,-24.66
43080,0.22,1.03,-0.12,-0.31,14.04,-25.57
43100,0.21,1.05,-0.11,3.72,11.72,-22.22
43120,0.17,1.05,-0.12,7.51,9.09,-18.01
43140,0.19,1.03,-0.10,6.47,7.69,-14.59
43160,0.20,1.00,-0.12,4.70,7.57,-12.27
43180,0.19,1.00,-0.12,4.33,8.85,-11.60
43200,0.18,1.00,-0.13,4.52,9.09,-11.11
43220,0.16,1.00,-0.12,3.85,7.81,-10.74
43240,0.16,1.00,-0.12,2.87,4.88,-8.67
43260,0.15,1.00,-0.12,2.44,3.60,-7.39
43280,0.16,1.00,-0.13,1.83,2.62,-6.35
43300,0.16,1.00,-0.13,1.16,1.16,-4.70
43320,0.16,1.00,-0.13,1.22,1.04,-4.64
43340,0.17,0.99,-0.14,0.85,0.85,-4.58
43360,0.16,1.00,-0.13,-0.06,1.04,-5.13
43380,0.16,1.00,-0.14,0.00,0.92,-4.88
43400,0.15,1.00,-0.13,0.00,0.37,-4.94
43420,0.15,1.00,-0.13,-0.55,0.73,-4.76
43440,0.15,1.00,-0.14,-0.92,0.49,-4.33
43460,0.15,1.00,-0.14,-1.22,0.55,-4.39
43480,0.15,1.00,-0.13,-1.22,0.43,-3.85
43500,0.15,1.00,-0.14,-1.34,0.55,-3.54
43520,0.14,1.00,-0.13,-1.46,0.49,-3.30
43540,0.14,1.00,-0.14,-1.65,0.79,-2.26
43560,0.14,1.00,-0.13,-1.71,0.98,-1.77
43580,0.15,1.00,-0.14,-1.22,0.98,-1.34
43600,0.15,1.00,-0.13,-0.79,1.16,-1.53
43620,0.14,1.00,-0.13,-1.16,1.46,-1.04
43640,0.14,1.00,-0.13,-1.04,1.10,-0.61
43660,0.14,1.00,-0.13,-1.04,1.22,-0.24
43680,0.14,1.00,-0.13,-0.85,1.04,0.61
43700,0.15,1.00,-0.13,-0.55,0.85,1.40
43720,0.15,1.00,-0.13,-0.55,1.22,0.67
43740,0.15,1.00,-0.14,-0.18,1.04,0.43
43760,0.14,1.00,-0.13,-0.24,1.04,0.98
43780,0.14,1.00,-0.14,-0.37,1.04,1.65
43800,0.14,1.00,-0.14,-0.79,1.28,2.44
43820,0.15,1.00,-0.13,-0.79,1.28,3.48
43840,0.16,1.00,-0.14,0.31,1.10,2.99
43860,0.16,0.99,-0.15,1.04,0.92,2.38
43880,0.15,1.00,-0.13,0.37,1.16,2.20
43900,0.14,1.00,-0.14,0.06,0.98,2.69
43920,0.15,1.00,-0.13,-1.28,-0.55,5.43
43940,0.17,0.99,-0.15,-3.48,-1.71,5.19
43960,0.17,1.00,-0.14,-5.37,-3.05,3.85
43980,0.18,0.99,-0.14,-5.55,-3.23,2.62
44000,0.17,1.00,-0.12,-5.98,-2.69,2.38
44020,0.15,1.01,-0.11,-5.19,-2.69,3.05
44040,0.17,1.00,-0.12,-4.88,-3.60,4.64
44060,0.17,1.00,-0.11,-4.76,-3.54,5.80
44080,0.16,1.01,-0.12,-4.94,-4.46,7.93
44100,0.18,1.01,-0.13,-6.96,-6.65,11.23
44120,0.20,1.00,-0.13,-8.67,-5.62,13.85
44140,0.19,1.01,-0.13,-8.73,-3.36,14.28
44160,0.19,1.03,-0.11,-7.69,-3.30,15.93
44180,0.17,1.08,-0.13,-4.94,-5.43,22.52
44200,0.18,1.10,-0.13,-4.33,-7.32,27.22
44220,0.23,1.08,-0.15,-3.78,-9.16,34.18
44240,0.25,1.08,-0.23,-8.73,-6.35,43.09
44260,0.25,1.05,-0.20,-15.20,-9.77,46.33
44280,0.26,1.04,-0.16,-21.61,-11.72,47.85
44300,0.26,1.05,-0.10,-26.79,-13.49,50.11
44320,0.32,0.96,-0.06,-28.14,-13.85,52.67
44340,0.34,0.94,-0.03,-29.05,-11.84,52.55
44360,0.37,0.89,-0.01,-28.93,-6.84,51.64
44380,0.39,0.87,-0.02,-26.79,-3.11,49.01
44400,0.43,0.87,0.05,-24.90,-9.64,45.29
44420,0.44,0.87,0.06,-20.87,-6.71,42.05
44440,0.47,0.84,0.08,-15.08,-5.13,37.05
44460,0.49,0.83,0.06,-11.05,-3.30,32.90
44480,0.50,0.80,0.05,-7.81,-1.53,27.77
44500,0.50,0.82,0.04,-4.21,0.24,20.32
44520,0.50,0.83,0.00,-2.81,0.79,16.85
44540,0.52,0.82,0.02,-2.14,-1.22,13.12
44560,0.50,0.84,-0.00,-1.22,4.33,8.00
44580,0.52,0.85,0.04,-0.67,-2.20,2.99
44600,0.51,0.85,0.03,0.43,1.40,2.20
44620,0.53,0.81,0.04,1.77,0.85,-2.32
44640,0.51,0.85,0.01,2.69,3.66,-5.62
44660,0.51,0.85,0.02,4.64,2.38,-8.12
44680,0.50,0.89,0.03,6.59,1.89,-11.72
44700,0.49,0.89,0.02,7.14,2.69,-13.49
44720,0.50,0.87,0.01,7.57,2.62,-15.01
44740,0.50,0.85,-0.01,7.26,3.85,-18.92
44760,0.49,0.87,0.00,7.08,4.03,-21.18
44780,0.46,0.89,-0.00,7.57,6.84,-23.38
44800,0.47,0.89,0.01,8.85,6.23,-26.00
44820,0.45,0.87,0.02,11.84,6.04,-29.42
44840,0.44,0.87,-0.01,13.79,6.65,-32.10
44860,0.43,0.86,-0.04,14.22,7.45,-34.48
44880,0.40,0.91,-0.08,12.57,8.85,-39.55
44900,0.40,0.92,-0.01,13.79,6.84,-41.32
44920,0.39,0.89,0.01,16.60,8.67,-42.60
44940,0.31,0.99,-0.03,20.63,9.83,-41.63
44960,0.32,0.94,-0.12,19.04,10.31,-38.15
44980,0.31,0.98,-0.17,14.47,11.84,-38.82
45000,0.30,0.97,-0.11,10.44,10.62,-38.21
45020,0.27,0.97,-0.09,9.52,13.06,-39.18
45040,0.21,1.11,-0.05,10.31,9.83,-36.93
45060,0.27,1.01,-0.21,10.25,13.79,-27.22
45080,0.26,1.02,-0.23,4.46,12.33,-27.59
45100,0.27,1.02,-0.22,-2.01,12.51,-28.32
45120,0.23,1.03,-0.11,-7.39,13.12,-29.72
45140,0.11,1.16,-0.06,-3.30,6.84,-21.73
45160,0.21,1.03,-0.12,1.10,1.53,-10.31
45180,0.24,0.97,-0.15,-2.26,2.87,-10.13
45200,0.26,0.95,-0.14,-2.99,5.13,-13.55
45220,0.22,0.98,-0.13,-1.83,7.63,-17.76
45240,0.22,1.00,-0.12,2.38,6.77,-22.46
45260,0.14,1.04,-0.08,6.90,7.14,-21.79
45280,0.11,1.05,-0.09,5.98,3.11,-15.14
45300,0.19,1.00,-0.13,1.40,0.12,-7.02
45320,0.18,1.00,-0.12,-0.73,-0.06,-5.80
45340,0.18,1.00,-0.12,-0.92,1.59,-4.52
45360,0.18,0.99,-0.13,-0.73,1.71,-4.03
45380,0.18,0.99,-0.13,0.00,3.54,-5.37
45400,0.17,1.00,-0.13,0.37,3.60,-6.41
45420,0.17,1.00,-0.13,0.61,3.48,-6.59
45440,0.16,1.00,-0.12,-0.31,1.71,-5.80
45460,0.15,1.00,-0.12,-0.37,0.85,-5.07
45480,0.16,1.00,-0.12,-0.43,0.61,-4.03
45500,0.16,1.00,-0.13,0.55,1.10,-2.32
45520,0.16,1.00,-0.13,0.12,1.10,-1.77
45540,0.16,1.00,-0.13,-0.73,1.22,-1.77
45560,0.16,0.99,-0.13,0.06,1.53,-1.34
45580,0.16,1.00,-0.13,-0.18,1.10,-1.16
45600,0.16,1.00,-0.12,-0.37,0.85,-1.46
45620,0.16,1.00,-0.13,0.85,0.98,-0.67
45640,0.16,1.00,-0.13,1.59,1.04,-0.31
45660,0.16,1.00,-0.13,1.77,0.85,-0.12
45680,0.16,1.00,-0.13,2.50,1.53,0.37
45700,0.16,0.99,-0.14,1.53,1.59,0.12
45720,0.16,1.00,-0.14,0.55,1.71,-0.18
45740,0.16,1.00,-0.14,0.37,1.40,-0.12
45760,0.16,1.00,-0.14,-0.55,1.22,-0.43
45780,0.16,1.00,-0.14,-0.67,1.10,-0.43
45800,0.16,1.00,-0.14,-0.37,1.04,-0.37
45820,0.16,1.00,-0.14,-0.31,1.22,-0.37
45840,0.16,1.00,-0.14,0.12,1.40,-0.24
45860,0.16,1.00,-0.14,-0.06,1.46,-0.18
45880,0.15,1.00,-0.14,-0.43,1.34,0.43
45900,0.16,1.00,-0.14,-0.73,1.10,0.92
45920,0.16,0.99,-0.14,-1.34,0.85,1.04
45940,0.16,0.99,-0.14,-2.69,0.00,1.16
45960,0.16,0.99,-0.14,-3.91,-0.24,0.79
45980,0.16,1.00,-0.14,-4.64,-0.92,0.85
46000,0.15,1.00,-0.13,-4.88,-1.53,1.53
46020,0.15,1.00,-0.13,-5.74,-2.69,2.26
46040,0.16,0.99,-0.14,-7.45,-3.97,3.36
46060,0.16,1.00,-0.13,-9.58,-4.64,4.94
46080,0.15,1.01,-0.11,-9.77,-4.27,6.23
46100,0.14,1.02,-0.11,-10.31,-6.53,9.95
46120,0.16,1.03,-0.10,-12.33,-7.93,15.87
46140,0.18,1.04,-0.13,-14.28,-4.82,22.22
46160,0.21,1.04,-0.13,-13.24,-5.55,25.33
46180,0.12,1.15,-0.21,-13.24,-3.72,25.15
46200,0.06,1.39,-0.24,-12.39,-12.82,39.12
46220,0.20,1.24,-0.12,-11.23,-15.63,54.63
46240,0.19,1.18,-0.22,-16.72,-8.54,62.62
46260,0.24,1.06,-0.19,-31.62,-12.70,69.46
46280,0.26,1.01,-0.16,-41.38,-14.10,72.81
46300,0.33,0.90,-0.04,-47.67,-14.40,76.11
46320,0.35,0.89,-0.01,-46.57,-5.07,73.18
46340,0.47,0.77,0.14,-42.24,-10.86,70.74
46360,0.51,0.70,0.18,-32.23,-7.39,60.49
46380,0.53,0.62,0.24,-16.66,-6.77,41.02
46400,0.57,0.54,0.20,-6.35,-2.44,24.78
46420,0.61,0.54,0.18,3.91,0.85,8.06
46440,0.62,0.45,0.16,20.94,5.86,-21.97
46460,0.56,0.54,0.05,28.99,11.90,-45.65
46480,0.52,0.64,-0.03,34.91,11.23,-61.71
46500,0.45,0.81,-0.10,34.18,11.41,-76.66
46520,0.30,1.12,-0.03,33.08,5.92,-77.58
46540,0.37,0.88,0.18,36.44,2.50,-72.88
46560,0.36,0.71,0.17,42.66,15.01,-75.13
46580,0.14,1.12,-0.15,41.02,24.41,-80.75
46600,0.27,1.32,-0.42,33.08,32.35,-68.79
46620,-0.00,1.66,-0.72,21.00,40.71,-58.53
46640,0.11,1.27,-0.04,4.46,2.14,-16.78
46660,0.20,1.05,-0.09,-2.56,5.31,0.43
46680,0.21,1.03,-0.06,-2.08,3.30,2.56
46700,0.30,0.89,-0.13,0.55,0.49,1.04
46720,0.30,0.87,-0.20,-1.04,3.66,-6.77
46740,0.25,0.95,-0.16,-5.25,4.46,-15.20
46760,0.20,1.02,-0.10,-4.70,2.08,-18.49
46780,0.16,1.04,-0.08,-3.66,0.31,-13.98
46800,0.19,1.02,-0.08,-2.01,-1.53,-9.09
46820,0.20,1.00,-0.11,-0.31,-1.10,-5.86
46840,0.20,1.00,-0.12,-0.43,-1.04,-4.58
46860,0.20,1.00,-0.11,-1.40,-0.24,-3.54
46880,0.20,0.99,-0.11,-1.40,1.46,-3.23
46900,0.20,0.99,-0.11,-1.28,1.59,-3.48
46920,0.21,0.98,-0.12,-0.12,1.71,-4.58
46940,0.21,0.99,-0.12,0.31,1.71,-5.74
46960,0.19,1.00,-0.12,1.04,1.71,-7.02
46980,0.18,1.00,-0.12,0.61,2.01,-6.65
47000,0.18,1.00,-0.12,0.31,1.40,-5.98
47020,0.18,1.00,-0.11,-0.43,0.43,-4.15
47040,0.19,1.00,-0.12,-0.85,0.85,-3.11
47060,0.18,1.00,-0.11,-0.55,1.28,-2.87
47080,0.19,0.99,-0.12,0.00,1.77,-2.20
47100,0.18,0.99,-0.12,0.18,1.71,-2.26
47120,0.18,1.00,-0.12,0.31,1.53,-2.08
47140,0.18,1.00,-0.12,0.24,0.92,-1.10
47160,0.18,1.00,-0.12,0.31,1.04,-0.79
47180,0.18,1.00,-0.12,0.31,0.85,-0.24
47200,0.18,1.00,-0.12,0.00,0.73,0.18
47220,0.18,0.99,-0.12,-0.61,0.61,0.73
47240,0.19,0.99,-0.12,-0.73,0.67,0.73
47260,0.19,0.99,-0.12,-0.55,1.22,0.12
47280,0.18,1.00,-0.12,-0.43,0.98,0.37
47300,0.18,1.00,-0.12,-0.43,0.18,1.34
47320,0.18,1.00,-0.12,0.06,-0.18,2.26
47340,0.19,0.99,-0.12,-0.43,-0.49,2.69
47360,0.18,0.99,-0.13,-1.28,-0.18,2.99
47380,0.18,1.00,-0.11,-2.56,-0.18,3.91
47400,0.17,1.01,-0.12,-4.21,-0.55,6.47
47420,0.16,1.03,-0.11,-5.62,-2.14,10.13
47440,0.17,1.03,-0.10,-6.96,-4.52,16.36
47460,0.16,1.10,-0.12,-9.83,-7.45,25.63
47480,0.16,1.16,-0.14,-9.09,-9.77,32.23
47500,0.16,1.18,-0.21,-7.87,-8.61,37.84
47520,0.23,1.11,-0.23,-15.56,-7.26,45.04
47540,0.21,1.13,-0.21,-23.19,-11.60,48.89
47560,0.23,1.10,-0.17,-30.64,-14.71,52.98
47580,0.22,1.15,-0.12,-36.93,-18.37,63.23
47600,0.28,1.04,-0.07,-40.34,-18.62,74.16
47620,0.36,0.87,-0.06,-46.08,-11.54,75.01
47640,0.41,0.81,-0.07,-50.60,-4.39,70.56
47660,0.53,0.62,0.09,-47.55,-3.17,60.55
47680,0.55,0.56,0.18,-38.82,-4.52,45.04
47700,0.59,0.50,0.26,-18.49,-6.16,18.25
47720,0.65,0.44,0.29,-3.36,-1.40,-0.85
47740,0.65,0.44,0.18,9.70,3.30,-24.84
47760,0.56,0.57,0.15,25.21,9.95,-57.01
47780,0.46,0.73,0.06,39.25,8.97,-73.06
47800,0.37,0.94,0.00,43.82,8.73,-81.91
47820,0.29,1.08,0.02,47.91,3.78,-79.83
47840,0.26,0.91,-0.02,51.03,8.67,-68.66
47860,0.26,0.97,-0.06,46.45,16.48,-67.63
47880,0.20,1.03,-0.11,39.73,26.12,-67.26
47900,0.36,1.11,-0.50,20.08,42.42,-62.50
47920,0.14,1.19,-0.54,14.10,49.56,-67.99
47940,-0.20,1.59,0.15,24.84,15.69,-50.96
47960,0.17,1.03,-0.09,5.07,-0.67,7.20
47980,0.27,0.94,-0.16,2.44,-2.20,5.92
48000,0.27,0.91,-0.20,0.06,6.47,0.79
48020,0.26,0.96,-0.16,-4.46,5.37,-11.05
48040,0.21,0.99,-0.14,-4.94,5.25,-15.75
48060,0.17,1.00,-0.12,-1.53,2.32,-17.46
48080,0.16,1.01,-0.11,-1.46,0.61,-12.88
48100,0.17,1.01,-0.11,-2.62,-0.31,-8.36
48120,0.18,1.00,-0.12,-2.38,-0.06,-6.23
48140,0.17,1.00,-0.12,-1.10,-0.49,-4.27
48160,0.17,1.00,-0.12,-1.10,-0.73,-2.75
48180,0.18,1.00,-0.12,-0.98,-0.31,-1.28
48200,0.18,0.99,-0.12,-1.04,0.43,-0.85
48220,0.19,0.99,-0.13,-1.04,1.34,-1.46
48240,0.18,0.99,-0.13,-0.98,1.28,-2.20
48260,0.17,0.99,-0.13,-0.92,1.04,-2.32
48280,0.18,1.00,-0.12,-1.53,-1.10,-0.85
48300,0.18,0.99,-0.13,-1.59,-0.85,-0.67
48320,0.18,1.00,-0.12,-1.46,-1.04,-0.98
48340,0.18,1.00,-0.13,-1.04,-0.18,-0.92
48360,0.18,1.00,-0.13,-1.10,0.06,-1.10
48380,0.18,0.99,-0.13,-0.98,0.49,-1.22
48400,0.18,0.99,-0.13,-1.10,0.73,-1.53
48420,0.18,0.99,-0.13,-0.98,0.67,-2.14
48440,0.18,0.99,-0.13,-1.22,0.79,-2.93
48460,0.17,1.00,-0.09,-1.16,0.31,-2.81
48480,0.17,1.00,-0.12,-1.16,0.37,-2.38
48500,0.17,1.00,-0.12,-1.04,0.31,-1.53
48520,0.17,1.00,-0.12,-0.61,0.31,-0.24
48540,0.18,1.00,-0.13,-0.61,0.37,0.24
48560,0.17,1.00,-0.12,-0.61,0.43,0.55
48580,0.17,0.99,-0.13,-0.67,0.49,0.61
48600,0.17,1.00,-0.12,-1.28,0.06,1.04
48620,0.17,1.00,-0.13,-1.77,0.00,1.59
48640,0.17,0.99,-0.13,-2.99,-0.49,1.95
48660,0.17,1.01,-0.11,-7.02,-3.11,4.58
48680,0.17,1.00,-0.12,-7.63,-2.93,7.20
48700,0.17,1.01,-0.10,-8.91,-3.30,9.34
48720,0.15,1.04,-0.09,-10.86,-4.27,16.24
48740,0.16,1.05,-0.11,-11.54,-5.74,22.03
48760,0.17,1.08,-0.18,-12.33,-7.51,28.99
48780,0.16,1.24,-0.23,-13.00,-12.08,38.02
48800,0.19,1.30,-0.26,-13.85,-13.31,48.40
48820,0.17,1.24,-0.18,-22.95,-12.08,57.92
48840,0.23,1.06,-0.19,-33.45,-12.82,65.25
48860,0.29,0.94,-0.12,-41.93,-13.61,65.98
48880,0.34,0.86,-0.03,-46.45,-10.80,65.06
48900,0.44,0.79,-0.00,-44.80,-1.77,59.20
48920,0.46,0.73,0.12,-40.41,-6.90,55.36
48940,0.47,0.69,0.12,-31.43,-2.38,44.98
48960,0.50,0.70,0.19,-5.68,-4.64,28.02
48980,0.54,0.65,0.25,-0.49,-3.48,13.00
49000,0.58,0.61,0.18,11.96,-0.31,-1.83
49020,0.60,0.48,0.16,21.91,3.11,-37.48
49040,0.49,0.60,0.05,34.00,11.96,-58.41
49060,0.50,0.51,0.03,37.78,9.58,-74.58
49080,0.33,0.87,-0.25,36.01,16.85,-89.54
49100,0.12,1.27,-0.03,31.49,-2.32,-75.07
49120,0.23,1.08,0.01,32.04,0.24,-58.65
49140,0.35,0.82,-0.03,31.31,14.28,-60.61
49160,0.44,1.12,-0.41,28.75,57.86,-92.53
49180,0.02,1.56,-0.47,51.88,78.86,-108.34
49200,-0.33,1.48,0.13,49.68,-3.23,-54.38
49220,0.24,0.94,-0.15,-18.07,-1.46,15.63
49240,0.21,0.98,-0.09,-16.05,-6.84,1.53
49260,0.22,0.98,-0.08,-9.58,3.66,-0.79
49280,0.20,0.94,-0.13,-2.75,2.14,-7.93
49300,0.21,0.97,-0.15,-0.18,2.87,-12.21
49320,0.16,0.99,-0.14,0.06,1.95,-14.83
49340,0.13,1.01,-0.11,-1.46,-1.77,-12.63
49360,0.12,1.03,-0.09,-1.59,-1.95,-7.63
49380,0.16,1.00,-0.10,-0.92,-2.81,-2.81
49400,0.16,1.00,-0.12,0.06,-0.79,-1.71
49420,0.16,1.00,-0.13,-1.16,0.18,-1.34
49440,0.16,1.00,-0.12,-2.62,0.49,-0.98
49460,0.16,1.00,-0.11,-2.62,0.55,-1.28
49480,0.16,1.00,-0.11,-0.85,1.53,-1.89
49500,0.16,1.00,-0.12,0.31,1.59,-2.20
49520,0.16,1.00,-0.12,1.22,1.89,-2.32
49540,0.16,1.00,-0.13,1.89,2.14,-1.95
49560,0.15,1.00,-0.12,0.98,1.53,-1.77
49580,0.15,1.00,-0.12,0.85,1.53,-1.04
49600,0.15,1.00,-0.12,0.43,1.22,-0.12
49620,0.16,1.00,-0.12,1.46,1.89,0.49
49640,0.16,1.00,-0.13,1.89,2.26,0.79
49660,0.16,1.00,-0.13,0.92,1.59,0.06
49680,0.16,0.99,-0.13,0.61,1.22,-0.31
49700,0.15,0.99,-0.13,-0.18,0.98,-0.85
49720,0.16,1.00,-0.13,-1.77,0.24,-1.28
49740,0.16,1.00,-0.13,-2.01,0.00,-1.04
49760,0.16,1.00,-0.12,-2.44,0.12,-1.10
49780,0.16,1.00,-0.13,-2.75,0.24,-0.98
49800,0.16,1.00,-0.13,-2.75,0.06,-1.28
49820,0.15,1.00,-0.12,-2.62,0.06,-1.10
49840,0.16,1.00,-0.13,-2.56,-0.12,-1.04
49860,0.16,1.00,-0.12,-2.08,0.06,-0.79
49880,0.15,1.00,-0.12,-1.71,0.43,-0.67
49900,0.15,1.00,-0.12,-1.59,0.37,-0.61
49920,0.15,1.00,-0.12,-1.53,0.31,0.18
49940,0.16,1.00,-0.12,-1.65,-0.43,0.67
49960,0.16,1.00,-0.12,-1.77,0.00,0.61
49980,0.16,1.00,-0.12,-2.08,0.00,0.37
50000,0.16,1.00,-0.12,-2.14,-0.18,0.73
50020,0.15,1.00,-0.12,-2.01,-0.18,1.10
50040,0.16,1.00,-0.12,-3.05,-1.46,2.08
50060,0.16,1.00,-0.12,-3.48,-1.40,2.26
50080,0.16,1.00,-0.12,-3.85,-1.59,2.32
50100,0.16,1.00,-0.11,-4.39,-1.28,2.44
50120,0.17,1.00,-0.11,-4.03,-1.16,2.81
50140,0.16,1.00,-0.11,-4.21,-1.16,2.87
50160,0.17,1.00,-0.11,-4.09,-1.04,3.11
50180,0.17,1.00,-0.11,-4.03,-1.10,3.17
50200,0.16,1.00,-0.10,-3.85,-1.10,3.36
50220,0.18,1.00,-0.11,-4.39,-0.92,4.39
50240,0.18,1.00,-0.10,-4.76,-0.79,4.64
50260,0.18,1.00,-0.10,-4.58,-0.24,4.52
50280,0.18,1.00,-0.10,-3.97,-0.24,4.33
50300,0.18,1.00,-0.10,-4.03,0.12,4.39
50320,0.19,1.00,-0.10,-3.85,0.06,5.13
50340,0.19,1.00,-0.10,-3.91,0.37,4.82
50360,0.19,1.00,-0.10,-3.85,-0.24,5.49
50380,0.19,1.01,-0.08,-4.33,-1.28,7.08
50400,0.20,1.00,-0.09,-3.66,-0.55,8.06
50420,0.20,1.00,-0.09,-3.36,0.00,9.09
50440,0.21,1.00,-0.10,-3.54,0.00,10.01
50460,0.20,1.01,-0.11,-3.36,-0.06,10.13
50480,0.23,0.99,-0.10,-2.38,-0.49,10.62
50500,0.22,0.99,-0.11,-2.56,-0.24,9.52
50520,0.23,0.99,-0.10,-2.87,-0.37,8.42
50540,0.24,0.97,-0.10,-3.05,-0.31,7.20
50560,0.24,0.99,-0.09,-3.54,-0.49,6.41
50580,0.24,0.99,-0.11,-4.03,-0.61,6.29
50600,0.25,0.99,-0.08,-4.46,-0.92,6.04
50620,0.25,0.99,-0.08,-4.76,-1.16,6.59
50640,0.25,0.98,-0.08,-2.87,0.55,7.14
50660,0.25,0.98,-0.08,-1.40,2.99,8.73
50680,0.26,0.98,-0.08,-3.66,3.54,8.67
50700,0.26,0.98,-0.09,-5.25,3.05,8.18
50720,0.26,0.98,-0.09,-7.26,2.20,7.02
50740,0.26,0.99,-0.08,-9.34,0.24,5.37
50760,0.27,0.98,-0.06,-8.42,0.00,5.68
50780,0.28,0.96,-0.09,-8.48,0.67,6.41
50800,0.27,1.00,-0.09,-11.60,-0.49,4.21
50820,0.26,1.01,-0.07,-12.70,-2.08,5.07
50840,0.24,1.06,-0.05,-12.08,-3.30,7.14
50860,0.25,1.06,-0.03,-9.40,-3.48,13.18
50880,0.25,1.08,-0.03,-5.80,-4.03,17.82
50900,0.27,1.07,-0.00,-4.33,-4.03,22.16
50920,0.32,0.95,-0.05,-2.75,-3.36,24.23
50940,0.34,0.92,-0.10,-5.31,-1.71,21.61
50960,0.32,0.94,-0.13,-9.16,-1.83,18.55
50980,0.35,0.92,-0.08,-14.89,-4.82,17.09
51000,0.35,0.94,-0.03,-16.36,-6.29,16.42
51020,0.35,0.96,0.03,-15.87,-6.10,15.87
51040,0.35,0.94,0.05,-11.23,-3.36,16.30
51060,0.37,0.93,0.03,-8.30,-1.34,15.81
51080,0.38,0.92,-0.00,-7.14,-0.61,15.20
51100,0.39,0.90,-0.03,-7.81,-0.12,12.57
51120,0.38,0.95,-0.04,-10.50,-0.18,11.23
51140,0.39,0.93,-0.01,-12.39,-1.34,11.54
51160,0.39,0.96,-0.01,-14.34,-1.10,10.99
51180,0.40,0.97,0.01,-16.17,-0.67,11.72
51200,0.39,0.96,0.02,-15.56,-0.61,13.06
51220,0.40,0.92,0.01,-16.11,-0.73,14.40
51240,0.41,0.97,-0.00,-19.41,-0.49,14.10
51260,0.40,0.98,0.02,-21.61,-1.16,16.05
51280,0.41,0.99,0.04,-21.61,-2.87,18.55
51300,0.42,0.97,0.09,-18.68,-2.81,23.44
51320,0.44,0.91,0.10,-15.81,-1.95,24.48
51340,0.47,0.88,0.09,-14.89,-1.22,23.38
51360,0.46,0.87,0.10,-13.55,0.06,20.14
51380,0.47,0.89,0.10,-13.61,0.61,18.31
51400,0.48,0.87,0.09,-14.28,0.37,17.33
51420,0.48,0.90,0.09,-12.63,-0.12,15.26
51440,0.48,0.91,0.12,-11.47,-0.12,13.98
51460,0.49,0.93,0.17,-8.97,-0.98,14.40
51480,0.49,0.95,0.17,-3.97,-0.73,17.88
51500,0.50,0.91,0.19,4.33,0.79,18.92
51520,0.51,0.90,0.15,6.77,1.16,20.14
51540,0.55,0.80,0.08,7.81,2.50,19.90
51560,0.55,0.75,-0.02,2.01,6.47,13.43
51580,0.55,0.80,-0.02,-3.42,4.64,8.79
51600,0.54,0.84,0.02,-6.10,2.93,6.29
51620,0.55,0.85,0.15,-5.55,-1.10,2.38
51640,0.55,0.87,0.24,-2.75,-3.48,0.73
51660,0.53,0.93,0.21,0.67,0.67,0.49
51680,0.55,0.89,0.16,8.97,3.66,2.32
51700,0.55,0.85,0.09,12.33,5.00,2.38
51720,0.54,0.79,0.02,12.15,5.62,2.14
51740,0.56,0.76,-0.06,4.64,2.99,-2.93
51760,0.53,0.82,-0.05,-0.12,1.77,-5.74
51780,0.52,0.89,0.03,-3.60,-2.20,-7.45
51800,0.52,0.91,0.11,-7.75,-4.39,-5.68
51820,0.54,0.88,0.16,-7.45,-2.81,-5.37
51840,0.53,0.90,0.17,-5.07,-1.22,-5.86
51860,0.52,0.90,0.13,-0.61,1.22,-3.72
51880,0.54,0.84,0.09,1.46,0.73,-4.15
51900,0.54,0.83,0.08,3.05,1.46,-4.82
51920,0.54,0.83,0.03,3.11,3.36,-8.12
51940,0.53,0.86,0.05,1.16,1.89,-10.25
51960,0.51,0.89,0.07,-1.65,1.71,-11.23
51980,0.51,0.90,0.08,-3.23,1.04,-11.11
52000,0.51,0.89,0.12,-2.26,0.55,-10.44
52020,0.51,0.88,0.12,-1.04,1.28,-10.86
52040,0.52,0.86,0.11,0.92,1.71,-11.90
52060,0.51,0.85,0.08,3.60,2.38,-15.01
52080,0.52,0.84,0.08,4.64,1.89,-17.58
52100,0.51,0.84,0.08,4.21,2.08,-20.75
52120,0.48,0.91,0.11,6.71,1.40,-23.25
52140,0.47,0.91,0.09,7.87,2.01,-23.56
52160,0.46,0.91,0.06,9.46,1.65,-23.68
52180,0.46,0.89,0.05,10.01,1.16,-24.29
52200,0.48,0.84,0.05,9.95,1.04,-26.06
52220,0.41,0.96,0.07,10.80,2.08,-29.85
52240,0.42,0.96,0.13,14.40,0.73,-26.31
52260,0.41,0.93,0.04,16.85,1.77,-24.66
52280,0.41,0.93,0.01,16.11,1.40,-24.84
52300,0.41,0.92,-0.00,14.95,2.20,-25.02
52320,0.37,0.99,0.02,13.18,1.65,-25.27
52340,0.35,1.00,0.04,13.85,1.77,-22.58
52360,0.36,0.94,0.05,15.32,2.32,-19.29
52380,0.36,0.93,0.00,17.82,4.52,-20.02
52400,0.39,0.87,-0.07,15.32,6.23,-20.69
52420,0.38,0.89,-0.13,9.16,8.91,-25.27
52440,0.31,1.01,-0.02,6.16,3.85,-26.37
52460,0.33,0.96,0.08,9.40,2.20,-24.11
52480,0.29,1.01,0.10,15.63,4.33,-24.29
52500,0.30,1.01,-0.04,21.97,7.08,-17.64
52520,0.31,0.96,-0.14,19.71,9.09,-15.75
52540,0.33,0.94,-0.16,13.92,7.51,-17.52
52560,0.30,0.92,-0.04,7.93,5.43,-22.22
52580,0.25,1.00,-0.01,9.28,6.65,-23.25
52600,0.26,1.03,-0.03,13.06,6.65,-20.02
52620,0.26,1.02,-0.12,14.47,9.28,-17.21
52640,0.27,1.01,-0.14,11.66,10.25,-17.58
52660,0.24,1.03,-0.14,8.42,10.56,-17.58
52680,0.26,0.99,-0.13,4.39,10.74,-17.09
52700,0.22,1.02,-0.09,5.00,10.62,-17.58
52720,0.20,1.05,-0.11,8.12,8.30,-14.22
52740,0.21,1.02,-0.11,7.69,3.91,-7.39
52760,0.24,0.99,-0.13,2.62,3.42,-6.23
52780,0.25,0.97,-0.12,-0.12,3.60,-6.96
52800,0.24,0.97,-0.11,-0.31,5.19,-8.79
52820,0.22,0.98,-0.11,1.89,6.71,-11.41
52840,0.19,1.00,-0.10,4.39,6.04,-12.02
52860,0.17,1.01,-0.10,5.07,3.66,-9.64
52880,0.20,0.99,-0.13,1.16,0.12,-5.13
52900,0.21,0.99,-0.13,-1.28,-0.31,-4.52
52920,0.21,0.99,-0.12,-1.77,0.06,-4.52
52940,0.22,0.98,-0.12,-0.12,0.98,-5.68
52960,0.21,0.98,-0.12,0.92,1.65,-7.26
52980,0.19,0.99,-0.12,0.98,1.34,-8.54
53000,0.18,1.00,-0.12,-0.18,-1.28,-6.90
53020,0.18,0.99,-0.13,-1.71,-1.53,-6.04
53040,0.19,1.00,-0.12,-2.26,-2.75,-5.98
53060,0.19,1.00,-0.12,-2.56,-2.26,-5.13
53080,0.19,1.00,-0.11,-2.26,-1.59,-4.03
53100,0.18,1.00,-0.11,-1.77,-1.10,-3.11
53120,0.18,1.00,-0.11,-1.22,-0.43,-1.53
53140,0.19,1.00,-0.12,-0.98,0.06,-1.10
53160,0.19,1.00,-0.12,-0.61,0.43,-0.98
53180,0.18,1.00,-0.12,-0.49,0.37,-0.73
53200,0.19,0.99,-0.12,-1.22,0.18,-1.10
53220,0.19,0.99,-0.12,-1.65,0.37,-1.46
53240,0.19,1.00,-0.12,-1.89,0.37,-1.83
53260,0.18,1.00,-0.12,-0.98,0.49,-1.83
53280,0.19,0.99,-0.12,-1.22,0.37,-1.65
53300,0.19,0.99,-0.12,-1.65,0.49,-1.71
53320,0.18,0.99,-0.12,-1.71,0.49,-2.14
53340,0.18,1.00,-0.11,-1.71,0.37,-2.38
53360,0.18,1.00,-0.11,-1.71,0.00,-1.89
53380,0.18,1.00,-0.12,-2.14,-0.12,-1.22
53400,0.19,1.00,-0.12,-2.26,0.00,-0.73
53420,0.18,1.00,-0.11,-1.89,0.31,-0.73
53440,0.18,1.00,-0.11,-1.34,0.61,-0.43
53460,0.18,1.00,-0.11,-1.10,0.92,-0.61
53480,0.18,1.00,-0.11,-1.16,0.79,-0.31
53500,0.18,1.00,-0.11,-0.98,0.92,-0.12
53520,0.18,1.00,-0.12,-0.92,1.10,-0.12
53540,0.18,1.00,-0.12,-0.85,1.34,-0.43
53560,0.18,1.00,-0.11,-0.98,1.22,-0.55
53580,0.18,1.00,-0.11,-0.67,1.28,-0.43
53600,0.18,1.00,-0.12,-0.49,1.28,0.00
53620,0.18,1.00,-0.12,-0.61,0.92,0.18
53640,0.18,1.00,-0.12,-0.61,0.85,0.43
53660,0.18,1.00,-0.11,-0.73,1.04,0.37
53680,0.19,0.99,-0.12,-0.79,1.28,0.37
53700,0.18,1.00,-0.11,-0.85,1.10,0.31
53720,0.18,1.00,-0.12,-0.98,0.73,0.79
53740,0.18,1.00,-0.11,-1.34,0.49,1.53
53760,0.19,1.00,-0.12,-1.77,0.37,2.08
53780,0.19,1.00,-0.11,-1.89,0.37,2.08
53800,0.18,1.00,-0.11,-1.89,0.61,2.14
53820,0.19,1.00,-0.11,-2.44,0.24,2.44
53840,0.19,1.00,-0.11,-2.62,-0.06,3.05
53860,0.19,1.00,-0.11,-2.75,0.18,3.42
53880,0.20,1.00,-0.11,-2.20,1.10,3.54
53900,0.20,0.99,-0.11,-2.01,1.40,3.91
53920,0.20,0.99,-0.11,-1.89,1.53,3.54
53940,0.20,0.99,-0.12,-2.93,1.04,3.91
53960,0.20,1.00,-0.11,-3.78,0.61,4.27
53980,0.20,0.99,-0.11,-4.70,-0.18,5.13
54000,0.21,1.00,-0.11,-5.62,-0.92,5.92
54020,0.21,0.99,-0.11,-6.41,-0.85,6.90
54040,0.22,0.99,-0.11,-7.08,-0.67,6.47
54060,0.21,0.99,-0.12,-7.14,-1.22,6.47
54080,0.22,1.01,-0.10,-7.45,-1.83,7.39
54100,0.22,1.00,-0.11,-7.20,-2.14,8.61
54120,0.23,1.00,-0.10,-7.75,-2.75,9.03
54140,0.24,1.01,-0.10,-9.64,-4.39,10.07
54160,0.24,1.00,-0.11,-10.86,-3.72,10.74
54180,0.24,1.00,-0.10,-12.39,-3.11,11.23
54200,0.25,1.00,-0.08,-13.92,-2.56,11.66
54220,0.25,1.00,-0.06,-14.40,-2.75,12.21
54240,0.25,1.00,-0.05,-13.98,-2.38,13.12
54260,0.26,0.99,-0.05,-13.31,-1.95,14.71
54280,0.26,1.01,-0.05,-12.88,-1.77,15.14
54300,0.27,1.01,-0.03,-11.47,-2.14,17.21
54320,0.29,0.98,-0.04,-10.38,-0.98,18.25
54340,0.29,0.99,-0.05,-11.05,-1.53,18.07
54360,0.29,1.00,-0.04,-11.41,-1.53,18.98
54380,0.31,0.98,-0.03,-11.29,-2.20,20.63
54400,0.31,1.00,-0.02,-11.35,-1.77,20.75
54420,0.31,1.02,-0.00,-9.89,-2.01,22.83
54440,0.33,0.99,0.00,-9.46,-1.95,26.73
54460,0.33,0.99,-0.00,-7.87,-1.71,28.63
54480,0.36,0.97,-0.01,-7.81,-2.01,30.40
54500,0.38,0.94,-0.03,-8.91,-1.71,31.01
54520,0.39,0.92,-0.02,-12.82,-2.26,31.25
54540,0.39,0.94,-0.03,-15.56,-1.95,31.01
54560,0.42,0.92,-0.01,-17.09,-3.05,31.07
54580,0.41,0.94,0.04,-16.85,-2.32,31.37
54600,0.43,0.92,0.05,-16.24,-2.26,32.96
54620,0.45,0.91,0.03,-15.87,-0.92,32.53
54640,0.49,0.85,0.05,-15.14,-0.98,30.58
54660,0.48,0.84,0.04,-15.08,0.06,27.83
54680,0.51,0.82,0.04,-16.17,-0.49,25.02
54700,0.53,0.80,0.04,-16.85,0.06,17.82
54720,0.54,0.78,0.07,-16.72,-0.49,12.82
54740,0.54,0.82,0.08,-17.40,-0.12,6.90
54760,0.53,0.85,0.12,-13.00,0.12,1.40
54780,0.54,0.83,0.14,-9.77,0.98,-2.20
54800,0.54,0.80,0.16,-4.64,1.59,-8.00
54820,0.50,0.82,0.16,-1.59,3.78,-13.92
54840,0.47,0.96,0.06,0.12,2.75,-11.72
54860,0.47,0.96,-0.01,-2.08,3.78,-7.32
54880,0.48,0.94,-0.03,-4.46,1.71,-4.09
54900,0.49,0.91,0.05,-8.18,-0.79,-0.98
54920,0.47,0.95,0.13,-8.97,-0.73,0.00
54940,0.48,0.93,0.17,-6.90,-0.73,2.01
54960,0.49,0.88,0.13,-3.36,1.89,2.50
54980,0.51,0.84,0.07,-2.81,2.75,2.01
55000,0.51,0.84,0.03,-2.20,2.32,-0.12
55020,0.52,0.84,0.08,-3.78,1.10,-4.82
55040,0.51,0.84,0.12,-3.11,0.37,-8.06
55060,0.49,0.89,0.13,-1.46,0.67,-11.11
55080,0.48,0.92,0.12,1.77,1.10,-12.45
55100,0.48,0.91,0.09,3.23,1.65,-12.45
55120,0.47,0.91,0.07,3.66,2.50,-12.63
55140,0.48,0.90,0.07,3.42,1.77,-12.94
55160,0.48,0.87,0.09,3.85,1.04,-13.85
55180,0.46,0.90,0.10,4.15,1.83,-15.50
55200,0.46,0.91,0.12,6.59,1.71,-16.97
55220,0.46,0.90,0.08,8.42,2.44,-18.01
55240,0.46,0.88,0.07,9.77,2.69,-19.90
55260,0.45,0.89,0.07,10.62,2.38,-23.32
55280,0.42,0.92,0.05,10.44,1.71,-25.39
55300,0.42,0.93,0.08,12.15,0.24,-25.70
55320,0.41,0.94,0.07,13.31,0.79,-25.51
55340,0.39,0.92,0.07,17.64,1.95,-26.00
55360,0.38,0.92,0.05,19.47,1.71,-26.25
55380,0.36,0.97,0.02,19.23,2.44,-26.61
55400,0.36,0.95,-0.03,18.13,2.50,-25.15
55420,0.36,0.93,-0.04,16.24,2.75,-25.88
55440,0.35,0.92,-0.00,15.44,1.65,-27.65
55460,0.31,0.99,0.02,16.54,1.16,-26.73
55480,0.32,0.99,-0.00,17.03,2.20,-24.90
55500,0.32,0.96,-0.03,16.60,4.33,-24.78
55520,0.29,0.98,-0.08,12.08,6.04,-25.27
55540,0.28,0.99,-0.06,8.67,3.17,-24.35
55560,0.27,1.03,-0.03,7.32,1.77,-22.46
55580,0.27,1.01,0.03,9.40,2.75,-20.26
55600,0.27,1.00,-0.00,12.39,6.10,-19.96
55620,0.27,0.96,-0.02,15.69,8.18,-20.02
55640,0.24,1.00,-0.04,17.21,8.91,-19.23
55660,0.24,1.00,-0.17,13.06,7.87,-16.17
55680,0.24,1.02,-0.18,6.77,5.98,-15.87
55700,0.24,1.01,-0.14,2.20,3.36,-15.20
55720,0.27,0.97,-0.05,1.65,2.81,-16.97
55740,0.16,1.04,-0.05,5.98,7.39,-18.86
55760,0.21,1.10,-0.04,13.43,2.14,-14.59
55780,0.23,0.99,-0.15,9.40,1.34,-5.68
55800,0.23,0.98,-0.13,3.30,0.55,-5.49
55820,0.23,0.98,-0.11,-1.89,0.92,-5.68
55840,0.23,0.97,-0.09,-4.03,1.77,-8.36
55860,0.24,0.98,-0.09,-1.28,3.91,-12.33
55880,0.18,0.99,-0.08,3.78,5.55,-15.56
55900,0.16,1.03,-0.08,6.96,-1.22,-11.05
55920,0.20,1.00,-0.11,2.50,-1.71,-5.07
55940,0.20,1.00,-0.10,1.28,-0.85,-3.91
55960,0.20,0.99,-0.10,1.95,1.22,-3.48
55980,0.20,0.99,-0.10,2.01,1.71,-4.39
56000,0.21,0.99,-0.10,3.30,3.17,-5.68
56020,0.21,0.98,-0.12,5.92,5.62,-7.81
56040,0.18,0.99,-0.12,5.43,5.98,-10.01
56060,0.17,1.00,-0.11,5.25,5.62,-11.35
56080,0.16,1.01,-0.11,4.15,3.66,-8.85
56100,0.16,1.00,-0.11,2.62,2.62,-7.08
56120,0.17,1.00,-0.12,1.53,1.89,-5.55
56140,0.17,1.00,-0.13,0.49,1.53,-4.70
56160,0.17,1.00,-0.13,0.55,1.53,-3.97
56180,0.16,1.00,-0.12,0.12,2.14,-3.42
56200,0.16,1.00,-0.12,-0.43,1.95,-3.23
56220,0.16,1.00,-0.12,-1.16,1.10,-3.11
56240,0.16,1.00,-0.12,-0.73,1.04,-3.05
56260,0.16,1.00,-0.12,-1.16,0.55,-3.05
56280,0.16,1.00,-0.12,-1.59,0.55,-2.50
56300,0.16,1.00,-0.12,-1.28,0.37,-2.14
56320,0.16,1.00,-0.12,-0.85,0.79,-1.71
56340,0.16,1.00,-0.12,-0.55,1.04,-1.34
56360,0.16,1.00,-0.12,-0.98,1.10,-1.28
56380,0.16,1.00,-0.13,-1.40,0.73,-0.85
56400,0.16,1.00,-0.13,-0.98,0.85,-0.92
56420,0.15,1.00,-0.12,-0.73,1.10,-0.85
56440,0.15,1.00,-0.12,-1.28,0.67,-0.55
56460,0.16,1.00,-0.12,-2.01,-0.06,-0.55
56480,0.15,1.00,-0.12,-2.75,-0.55,-1.28
56500,0.16,1.00,-0.12,-2.69,-1.34,-1.65
56520,0.16,1.00,-0.12,-2.99,-1.65,-1.71
56540,0.17,1.00,-0.12,-2.93,-2.56,-0.73
56560,0.16,1.00,-0.12,-2.56,-1.71,-1.46
56580,0.16,1.00,-0.11,-2.20,-1.65,-1.16
56600,0.15,1.00,-0.12,-1.71,-0.31,-0.43
56620,0.15,1.00,-0.11,-1.71,-0.61,0.24
56640,0.16,1.00,-0.11,-1.59,-0.43,1.10
56660,0.16,1.00,-0.12,-0.61,0.43,1.10
56680,0.16,1.00,-0.11,-0.31,1.04,0.73
56700,0.16,1.00,-0.12,0.00,0.85,1.34
56720,0.16,1.00,-0.12,-0.79,0.43,1.83
56740,0.16,1.00,-0.11,-0.98,0.12,2.08
56760,0.16,1.00,-0.12,0.31,0.55,2.26
56780,0.15,1.00,-0.12,-0.85,0.43,2.26
56800,0.15,1.00,-0.11,-2.75,-0.92,3.42
56820,0.16,1.00,-0.12,-4.03,-1.89,5.31
56840,0.18,1.00,-0.12,-5.68,-2.32,6.04
56860,0.17,1.00,-0.11,-6.16,-2.08,6.23
56880,0.17,1.01,-0.10,-6.04,-2.20,7.69
56900,0.18,1.00,-0.11,-6.41,-1.89,10.68
56920,0.18,1.01,-0.10,-6.77,-1.16,11.47
56940,0.20,1.00,-0.09,-7.45,-1.71,13.24
56960,0.21,1.00,-0.11,-6.84,-0.92,14.40
56980,0.20,1.00,-0.12,-7.69,-1.28,14.34
57000,0.20,1.01,-0.12,-7.69,-2.20,14.53
57020,0.19,1.04,-0.11,-7.81,-3.54,15.38
57040,0.22,1.02,-0.09,-6.53,-4.70,17.40
57060,0.21,1.04,-0.11,-6.35,-2.93,17.76
57080,0.26,0.99,-0.10,-7.20,-3.23,19.35
57100,0.25,0.99,-0.10,-9.83,-2.26,18.98
57120,0.26,0.99,-0.10,-11.78,-2.38,19.17
57140,0.26,1.00,-0.07,-13.43,-2.75,19.04
57160,0.28,0.97,-0.07,-14.04,-1.95,19.04
57180,0.29,0.97,-0.06,-14.95,-1.89,18.49
57200,0.29,0.96,-0.05,-15.08,-2.20,17.88
57220,0.31,0.95,-0.04,-14.83,-1.46,16.42
57240,0.31,0.96,-0.04,-14.95,-1.83,15.81
57260,0.32,0.96,-0.02,-15.20,-1.34,15.14
57280,0.31,0.99,-0.03,-15.20,-0.85,15.44
57300,0.32,0.98,-0.03,-15.32,-1.53,17.52
57320,0.32,1.00,-0.03,-16.05,-1.10,18.74
57340,0.32,1.03,-0.05,-17.52,-1.28,22.77
57360,0.34,1.01,0.01,-19.29,-3.17,27.83
57380,0.35,0.99,-0.00,-19.23,-2.01,29.97
57400,0.37,0.97,0.02,-18.68,-2.44,31.31
57420,0.39,0.94,0.04,-17.15,-2.14,33.08
57440,0.41,0.90,0.03,-16.78,-1.59,32.65
57460,0.42,0.90,0.04,-15.81,-2.01,30.58
57480,0.44,0.89,0.08,-12.15,-2.56,28.50
57500,0.43,0.92,0.09,-9.64,-2.26,26.73
57520,0.44,0.93,0.12,-6.53,-2.50,26.55
57540,0.48,0.87,0.08,-3.17,-0.37,25.33
57560,0.47,0.89,0.06,-1.71,0.37,22.58
57580,0.47,0.92,0.06,-1.04,0.06,22.03
57600,0.49,0.87,0.02,-2.69,-0.06,22.58
57620,0.49,0.88,0.01,-4.82,0.18,20.94
57640,0.51,0.87,0.02,-6.23,-0.92,19.84
57660,0.51,0.85,0.06,-8.06,-1.71,18.13
57680,0.53,0.84,0.08,-8.06,-1.53,16.85
57700,0.53,0.84,0.07,-8.24,0.18,14.53
57720,0.55,0.83,0.09,-5.74,1.04,9.89
57740,0.57,0.78,0.11,-3.42,0.92,5.25
57760,0.55,0.80,0.13,-0.73,1.71,1.34
57780,0.54,0.82,0.11,1.77,2.62,-2.99
57800,0.54,0.83,0.07,3.97,3.23,-5.43
57820,0.54,0.83,0.04,4.46,3.54,-8.30
57840,0.53,0.86,0.06,5.43,2.26,-11.35
57860,0.52,0.89,0.08,5.68,2.14,-12.39
57880,0.51,0.90,0.06,5.92,2.93,-12.45
57900,0.51,0.88,0.03,5.55,2.62,-12.02
57920,0.51,0.87,0.01,3.48,2.20,-12.27
57940,0.51,0.87,0.02,1.83,2.20,-13.12
57960,0.51,0.85,0.07,1.22,1.16,-15.08
57980,0.50,0.85,0.11,3.72,0.98,-20.87
58000,0.49,0.92,0.11,7.69,1.34,-22.09
58020,0.47,0.91,0.08,10.68,2.50,-21.73
58040,0.46,0.89,-0.00,12.02,3.85,-21.61
58060,0.47,0.87,-0.01,10.31,1.40,-23.80
58080,0.43,0.95,0.00,8.97,2.01,-25.09
58100,0.42,0.98,0.03,8.54,0.37,-20.69
58120,0.42,0.96,0.01,9.03,0.98,-17.27
58140,0.43,0.93,-0.02,7.69,1.34,-16.05
58160,0.43,0.90,-0.03,6.04,1.53,-17.58
58180,0.40,0.95,0.01,4.21,1.04,-18.37
58200,0.40,0.96,0.03,4.88,0.43,-17.03
58220,0.41,0.92,0.03,6.16,0.79,-16.05
58240,0.43,0.86,0.01,8.42,2.01,-19.78
58260,0.43,0.83,0.02,10.01,3.48,-24.78
58280,0.35,0.96,0.01,12.63,4.15,-29.30
58300,0.37,0.96,0.01,15.81,1.83,-26.25
58320,0.36,0.93,-0.02,17.58,4.15,-26.37
58340,0.37,0.92,-0.05,17.64,5.86,-28.38
58360,0.31,0.95,-0.05,17.52,7.87,-32.04
58380,0.29,1.00,-0.01,17.82,5.62,-30.27
58400,0.29,1.02,-0.09,17.21,8.00,-26.49
58420,0.32,0.93,-0.14,14.28,10.74,-25.57
58440,0.34,0.87,-0.13,10.62,11.90,-29.79
58460,0.30,0.88,-0.06,7.26,12.27,-36.19
58480,0.21,1.21,-0.06,9.40,12.63,-33.51
58500,0.24,1.11,-0.14,14.47,15.93,-23.32
58520,0.25,1.02,-0.23,13.79,17.46,-20.20
58540,0.28,0.95,-0.24,0.73,13.73,-24.96
58560,0.14,1.08,-0.12,-2.62,13.55,-28.75
58580,0.06,1.17,0.00,5.25,7.02,-21.36
58600,0.20,1.02,-0.12,6.77,2.08,-2.44
58620,0.23,0.97,-0.14,-2.50,1.65,-3.60
58640,0.24,0.97,-0.12,-4.15,2.87,-5.62
58660,0.25,0.95,-0.13,-1.71,4.52,-8.12
58680,0.22,0.99,-0.13,4.46,2.44,-16.17
58700,0.11,1.06,-0.04,8.30,1.53,-16.24
58720,0.15,1.01,-0.13,7.57,-0.85,-6.84
58740,0.20,0.99,-0.14,-0.79,-1.77,-4.27
58760,0.19,1.00,-0.12,-3.72,-1.16,-3.85
58780,0.19,0.99,-0.12,-3.66,-1.04,-3.54
58800,0.19,0.99,-0.12,-1.59,-0.61,-4.46
58820,0.18,1.00,-0.12,-0.18,0.00,-5.37
58840,0.18,1.00,-0.12,-0.18,-0.06,-5.07
58860,0.18,1.00,-0.12,-1.34,-1.04,-2.08
58880,0.18,1.00,-0.12,-1.83,-0.98,-0.85
58900,0.19,0.99,-0.12,-1.95,-1.40,-0.73
58920,0.19,1.00,-0.12,-1.40,-0.73,-1.10
58940,0.18,1.00,-0.12,-1.04,0.06,-1.10
58960,0.18,1.00,-0.12,-1.10,0.37,-0.67
58980,0.18,1.00,-0.12,-1.53,-0.12,0.37
59000,0.19,0.99,-0.12,-1.77,-0.24,0.37
59020,0.19,0.99,-0.12,-1.59,-0.06,-0.31
59040,0.19,0.99,-0.12,-1.53,0.18,-0.92
59060,0.18,1.00,-0.11,-0.85,0.61,-1.22
59080,0.18,1.00,-0.12,-0.79,0.85,-0.92
59100,0.18,1.00,-0.12,-0.31,0.98,-0.73
59120,0.19,1.00,-0.12,-0.37,1.22,-0.49
59140,0.19,0.99,-0.12,-0.06,1.28,-0.55
59160,0.18,1.00,-0.12,0.00,1.46,-0.73
59180,0.18,1.00,-0.12,-0.24,1.16,-0.24
59200,0.18,0.99,-0.12,-0.24,0.79,0.18
59220,0.19,0.99,-0.12,-0.55,0.55,0.43
59240,0.18,1.00,-0.12,-0.61,0.43,0.49
59260,0.18,1.00,-0.12,-0.79,0.55,0.92
59280,0.19,0.99,-0.12,-1.10,0.12,1.28
59300,0.18,0.99,-0.12,-1.95,0.00,1.46
59320,0.19,1.00,-0.12,-2.44,0.18,1.59
59340,0.18,1.00,-0.12,-2.26,0.18,1.65
59360,0.18,1.00,-0.12,-2.93,-0.43,2.38
59380,0.18,1.00,-0.11,-3.97,-0.92,3.60
59400,0.18,1.00,-0.11,-4.82,-1.46,5.80
59420,0.19,1.01,-0.11,-5.80,-1.95,8.97
59440,0.19,1.01,-0.11,-7.45,-2.08,11.17
59460,0.21,1.00,-0.12,-8.48,-2.50,13.00
59480,0.20,1.02,-0.14,-9.22,-1.59,13.49
59500,0.21,1.02,-0.14,-10.19,-2.44,14.53
59520,0.22,1.02,-0.13,-11.23,-4.27,16.24
59540,0.20,1.12,-0.18,-12.51,-4.39,18.86
59560,0.18,1.18,-0.14,-17.94,-7.08,29.79
59580,0.18,1.18,-0.14,-19.53,-8.73,39.67
59600,0.18,1.21,-0.13,-22.64,-9.83,49.68
59620,0.23,1.12,-0.07,-23.56,-10.86,63.05
59640,0.32,0.91,-0.08,-26.98,-10.31,69.03
59660,0.38,0.82,-0.05,-35.83,-5.43,65.31
59680,0.42,0.77,-0.00,-39.92,1.16,53.96
59700,0.45,0.72,0.07,-37.17,-0.92,45.78
59720,0.46,0.68,0.07,-31.98,3.91,35.83
59740,0.52,0.67,0.13,-20.63,-0.37,15.56
59760,0.52,0.68,0.15,-11.05,-3.17,1.89
59780,0.51,0.74,0.14,-1.16,-2.93,-11.96
59800,0.54,0.61,0.11,10.62,1.40,-33.45
59820,0.44,0.80,0.10,20.20,3.54,-48.10
59840,0.40,0.84,0.07,29.54,1.16,-53.16
59860,0.33,1.00,-0.00,34.55,-4.15,-50.96
59880,0.31,1.03,-0.05,35.03,-3.85,-40.95
59900,0.36,0.96,-0.09,29.42,3.72,-37.29
59920,0.36,0.82,-0.07,23.93,11.29,-41.32
59940,0.26,0.91,-0.04,17.21,16.11,-50.96
59960,0.20,1.12,-0.03,20.14,14.10,-50.35
59980,0.25,1.13,-0.05,23.74,15.26,-44.37
60000,0.21,1.13,-0.19,26.86,32.23,-42.24
60020,-0.01,1.14,-0.43,25.94,38.57,-41.14
60040,0.08,1.16,-0.21,25.76,19.41,-32.35
60060,0.17,1.03,-0.14,4.58,6.10,-11.66
60080,0.20,1.01,-0.10,-2.75,3.60,-9.52
60100,0.20,1.00,-0.09,-1.04,5.00,-9.58
60120,0.18,0.99,-0.13,2.99,7.69,-11.47
60140,0.17,1.00,-0.13,3.23,5.37,-11.96
60160,0.16,1.00,-0.13,1.46,2.75,-10.74
60180,0.17,1.00,-0.12,0.85,0.12,-7.69
60200,0.16,1.00,-0.12,0.31,0.12,-6.71
60220,0.17,1.00,-0.12,0.49,-0.37,-5.37
60240,0.17,1.00,-0.13,0.79,0.24,-4.39
60260,0.17,1.00,-0.13,0.31,0.79,-4.21
60280,0.17,0.99,-0.14,-0.31,0.61,-3.91
60300,0.16,1.00,-0.13,-1.10,0.37,-3.78
60320,0.16,1.00,-0.13,-1.46,-0.18,-3.30
60340,0.17,0.99,-0.13,-1.71,-0.12,-2.93
60360,0.16,1.00,-0.13,-1.71,0.12,-3.11
60380,0.16,1.00,-0.13,-2.08,0.00,-2.44
60400,0.16,1.00,-0.12,-1.46,0.12,-2.14
60420,0.16,1.00,-0.13,-1.04,0.24,-1.65
60440,0.16,1.00,-0.13,-1.34,0.24,-1.04
60460,0.16,1.00,-0.13,-1.34,0.43,-0.37
60480,0.16,1.00,-0.13,-1.46,0.06,-0.12
60500,0.16,1.00,-0.13,-1.04,0.24,0.00
60520,0.17,1.00,-0.13,-0.73,0.18,0.18
60540,0.16,1.00,-0.13,-1.04,0.73,0.31
60560,0.17,0.99,-0.13,-1.28,0.55,0.73
60580,0.16,1.00,-0.12,-1.40,0.73,0.92
60600,0.16,1.00,-0.13,-1.28,0.61,1.34
60620,0.17,1.00,-0.13,-1.34,0.73,1.10
60640,0.17,0.99,-0.13,-1.10,0.61,1.10
60660,0.16,1.00,-0.13,-1.40,0.79,0.73
60680,0.16,1.00,-0.13,-1.65,0.00,1.53
60700,0.17,0.99,-0.13,-2.69,-0.49,1.77
60720,0.17,1.00,-0.12,-3.23,-0.37,1.40
60740,0.18,0.99,-0.13,-2.75,-0.49,1.40
60760,0.17,1.00,-0.12,-2.56,-0.49,1.65
60780,0.16,1.00,-0.12,-2.93,-1.04,2.08
60800,0.18,0.99,-0.13,-3.60,-1.89,2.44
60820,0.17,1.00,-0.12,-4.94,-2.69,2.44
60840,0.16,1.00,-0.12,-5.19,-3.05,3.36
60860,0.16,1.01,-0.11,-6.65,-5.00,5.49
60880,0.16,1.02,-0.11,-8.67,-4.82,9.09
60900,0.20,1.00,-0.09,-10.01,-6.04,12.33
60920,0.18,1.03,-0.10,-9.52,-3.85,13.61
60940,0.19,1.02,-0.11,-9.64,-5.07,18.92
60960,0.18,1.06,-0.14,-9.09,-3.48,21.79
60980,0.17,1.09,-0.15,-7.45,-5.55,25.51
61000,0.21,1.12,-0.18,-8.36,-6.65,32.90
61020,0.20,1.18,-0.14,-10.99,-8.00,41.26
61040,0.21,1.13,-0.15,-13.31,-6.96,48.46
61060,0.24,1.06,-0.12,-19.10,-8.42,54.44
61080,0.28,1.01,-0.10,-22.16,-9.28,56.09
61100,0.32,0.93,-0.09,-25.82,-9.40,57.43
61120,0.33,0.91,-0.03,-28.99,-6.35,56.58
61140,0.33,0.97,-0.07,-31.43,-2.38,58.59
61160,0.40,0.90,-0.02,-34.00,-4.33,61.04
61180,0.46,0.77,-0.01,-33.63,-1.71,58.84
61200,0.52,0.72,0.09,-29.24,-4.58,44.31
61220,0.54,0.69,0.14,-21.79,-2.81,34.12
61240,0.58,0.66,0.20,-12.94,-3.91,19.96
61260,0.56,0.70,0.20,-0.43,-1.89,-0.61
61280,0.54,0.71,0.13,7.26,4.15,-11.05
61300,0.53,0.71,0.05,13.18,5.19,-23.62
61320,0.47,0.83,-0.00,18.86,5.68,-38.82
61340,0.42,0.91,-0.00,21.48,2.75,-43.21
61360,0.40,0.94,0.02,23.86,-0.18,-43.15
61380,0.39,0.94,0.00,26.98,3.60,-40.89
61400,0.39,0.90,-0.02,27.16,6.90,-39.86
61420,0.38,0.90,-0.10,24.90,8.79,-41.32
61440,0.36,0.96,-0.11,19.59,7.93,-42.54
61460,0.31,1.00,0.00,19.96,6.10,-39.25
61480,0.30,0.98,-0.01,22.16,8.79,-36.68
61500,0.31,0.91,-0.09,21.12,12.21,-35.34
61520,0.31,0.91,-0.22,14.34,14.59,-40.10
61540,0.30,0.96,-0.18,6.96,13.18,-44.74
