timestamp,accX,accY,accZ,gyrX,gyrY,gyrZ
0,0.21,0.97,-0.21,3.36,2.08,-0.92
20,0.20,0.97,-0.21,2.01,2.08,-1.46
40,0.19,0.98,-0.21,-0.31,1.59,-1.59
60,0.19,0.98,-0.21,-2.93,0.98,-1.16
80,0.20,0.97,-0.22,-4.52,0.18,-1.16
100,0.20,0.97,-0.21,-9.22,-0.18,-2.14
120,0.19,0.98,-0.20,-10.56,-0.61,-2.69
140,0.19,0.99,-0.19,-10.56,-1.34,-0.79
160,0.18,1.00,-0.18,-8.97,-2.32,1.34
180,0.19,0.99,-0.18,-8.24,-2.87,2.44
200,0.21,0.98,-0.18,-7.02,-2.81,3.66
220,0.21,0.98,-0.19,-5.43,-2.08,4.33
240,0.21,0.98,-0.19,-6.29,-1.89,4.70
260,0.22,0.98,-0.18,-6.35,-1.95,4.88
280,0.22,0.97,-0.18,-5.68,-1.22,3.97
300,0.22,0.97,-0.18,-4.64,-0.67,2.99
320,0.21,0.99,-0.17,-4.88,-1.28,2.87
340,0.22,0.98,-0.17,-5.31,-1.53,4.03
360,0.23,0.97,-0.18,-5.37,-1.46,3.48
380,0.22,0.99,-0.17,-5.98,-2.01,3.23
400,0.21,1.00,-0.17,-6.59,-3.05,5.31
420,0.21,1.00,-0.17,-7.26,-4.88,7.63
440,0.22,1.00,-0.19,-8.30,-5.74,9.64
460,0.22,1.02,-0.18,-11.90,-8.24,13.06
480,0.23,1.05,-0.18,-13.49,-8.36,15.69
500,0.28,1.00,-0.13,-12.45,-8.54,18.49
520,0.23,1.06,-0.21,-13.55,-8.06,24.35
540,0.24,1.06,-0.19,-17.40,-8.85,29.05
560,0.25,1.06,-0.16,-20.94,-11.11,33.75
580,0.30,0.99,-0.11,-22.16,-11.54,37.60
600,0.36,0.86,-0.03,-18.01,-8.36,34.48
620,0.37,0.85,-0.02,-13.67,-5.74,28.75
640,0.35,0.93,-0.05,-8.42,-2.99,23.99
660,0.35,0.97,-0.09,-4.09,-4.15,23.68
680,0.35,0.99,-0.13,-4.27,-3.60,24.17
700,0.37,0.96,-0.13,-5.80,-5.13,25.02
720,0.40,0.90,-0.08,-8.42,-6.23,24.54
740,0.40,0.92,-0.05,-8.06,-5.19,21.97
760,0.39,0.98,-0.04,-5.55,-4.52,21.24
780,0.41,0.97,-0.06,-3.72,-4.46,25.02
800,0.43,0.92,-0.05,-2.38,-3.66,25.94
820,0.42,0.95,-0.06,-2.01,-2.26,25.27
840,0.42,0.98,-0.05,-0.67,-2.99,27.53
860,0.46,0.94,-0.05,-0.79,-5.00,29.48
880,0.46,0.90,-0.06,-0.79,-3.11,30.27
900,0.48,0.84,-0.08,-2.32,-2.08,27.40
920,0.48,0.89,-0.11,-4.09,-1.16,23.01
940,0.47,0.93,-0.08,-5.49,-2.38,22.34
960,0.50,0.90,-0.02,-4.88,-5.25,24.78
980,0.54,0.81,-0.04,-4.03,-4.27,23.86
1000,0.54,0.80,-0.08,-3.85,-3.48,22.09
1020,0.54,0.81,-0.05,-2.01,-4.03,18.68
1040,0.54,0.85,-0.06,-2.38,-3.78,16.48
1060,0.54,0.86,-0.05,-2.75,-5.07,16.36
1080,0.53,0.87,-0.03,-2.44,-4.94,16.78
1100,0.55,0.85,-0.06,-2.81,-4.15,18.37
1120,0.55,0.85,-0.08,-4.15,-3.60,19.17
1140,0.58,0.80,-0.08,-6.35,-3.78,19.29
1160,0.59,0.78,-0.02,-7.14,-2.01,16.97
1180,0.59,0.80,-0.01,-7.75,0.00,14.10
1200,0.59,0.83,-0.02,-6.04,0.73,12.21
1220,0.63,0.77,-0.00,-5.92,0.18,11.35
1240,0.64,0.73,-0.02,-5.00,-0.61,8.00
1260,0.67,0.59,-0.01,-4.03,0.79,2.20
1280,0.67,0.53,-0.04,-2.26,0.98,-14.95
1300,0.61,0.75,-0.04,-3.97,2.75,-26.00
1320,0.60,0.78,-0.05,-6.41,2.62,-28.56
1340,0.53,0.96,-0.02,-6.23,1.34,-30.82
1360,0.58,0.80,0.11,1.10,1.59,-28.44
1380,0.58,0.76,0.01,6.10,4.27,-31.86
1400,0.59,0.56,-0.15,2.99,4.03,-36.87
1420,0.37,1.16,-0.12,-4.82,5.86,-47.24
1440,0.39,1.30,0.16,-4.82,-6.77,-30.52
1460,0.45,1.12,0.16,0.67,-1.46,-14.89
1480,0.54,0.72,-0.03,7.81,8.12,-6.53
1500,0.55,0.60,-0.22,5.49,9.64,-13.37
1520,0.55,0.73,-0.30,-11.05,4.27,-24.05
1540,0.45,1.08,0.22,-5.55,-8.79,-30.21
1560,0.45,1.02,0.29,4.27,0.31,-24.96
1580,0.44,0.91,0.05,16.05,10.13,-21.24
1600,0.39,1.01,-0.32,10.56,11.23,-17.40
1620,0.43,0.90,-0.28,-2.01,-1.10,-12.21
1640,0.46,0.86,-0.17,-9.46,2.32,-10.74
1660,0.48,0.77,0.19,-3.85,-2.01,-18.19
1680,0.38,1.04,0.04,1.53,6.77,-22.03
1700,0.36,1.13,-0.08,4.33,5.37,-16.17
1720,0.38,1.07,-0.13,0.85,3.30,-2.20
1740,0.43,0.92,-0.14,-4.39,1.46,0.24
1760,0.48,0.79,-0.02,-7.14,-0.79,-0.92
1780,0.53,0.66,0.06,-6.90,3.05,-14.95
1800,0.40,0.95,0.06,2.26,6.65,-25.51
1820,0.33,1.12,-0.02,6.65,5.92,-23.13
1840,0.36,1.08,-0.07,8.73,5.43,-14.59
1860,0.41,0.94,-0.11,9.09,6.71,-6.59
1880,0.47,0.80,-0.08,7.93,6.96,-8.06
1900,0.52,0.46,0.08,9.34,7.26,-18.68
1920,0.26,1.16,-0.12,8.06,10.86,-38.21
1940,0.29,1.22,-0.05,8.24,2.56,-26.18
1960,0.32,1.12,-0.05,10.93,5.25,-13.79
1980,0.37,0.95,-0.16,14.40,10.38,-2.75
2000,0.44,0.65,-0.05,12.27,9.64,-7.32
2020,0.39,0.69,0.01,14.34,14.04,-22.46
2040,0.27,1.14,-0.18,12.51,10.44,-27.89
2060,0.28,1.12,-0.17,10.62,8.79,-18.62
2080,0.31,1.06,-0.17,10.13,8.54,-12.27
2100,0.36,0.94,-0.09,11.72,10.86,-11.35
2120,0.53,0.32,0.12,16.85,16.85,-29.11
2140,0.29,0.94,-0.30,19.35,35.89,-55.48
2160,0.00,1.40,-0.71,-1.59,18.25,-42.05
2180,0.17,1.30,0.11,-7.26,-7.63,-15.08
2200,0.26,1.00,-0.13,7.20,3.54,3.23
2220,0.33,0.83,-0.25,5.49,6.71,-1.83
2240,0.49,0.58,-0.24,-2.69,15.75,-21.97
2260,-0.03,1.19,-0.29,-6.35,26.86,-44.07
2280,-0.03,1.38,0.15,-4.27,-2.99,-18.07
2300,0.28,0.90,-0.24,3.42,0.31,6.47
2320,0.24,0.99,-0.15,0.85,0.67,0.00
2340,0.25,0.96,-0.17,2.14,1.95,1.28
2360,0.25,0.96,-0.18,1.28,0.98,-3.30
2380,0.27,0.94,-0.19,0.85,2.87,-5.92
2400,0.24,0.95,-0.20,-0.43,6.23,-10.93
2420,0.16,1.05,-0.11,-2.32,1.89,-6.16
2440,0.22,0.99,-0.17,-2.14,-0.85,0.98
2460,0.24,0.97,-0.17,-2.75,-1.59,0.92
2480,0.24,0.97,-0.17,-1.46,-0.06,-1.04
2500,0.22,0.98,-0.16,-0.85,0.49,-1.71
2520,0.21,0.99,-0.16,-1.46,0.55,-1.34
2540,0.22,0.98,-0.18,-3.72,-0.37,-0.06
2560,0.22,0.99,-0.15,-5.31,-1.34,0.73
2580,0.23,0.98,-0.16,-4.52,-1.22,1.40
2600,0.24,0.97,-0.16,-3.42,0.06,0.18
2620,0.23,0.99,-0.14,-2.38,0.43,-0.73
2640,0.19,1.01,-0.15,-0.85,1.16,0.00
2660,0.22,1.00,-0.14,-1.16,-1.22,2.44
2680,0.23,0.99,-0.15,-2.14,-1.71,4.64
2700,0.21,1.00,-0.17,-2.87,-1.65,5.00
2720,0.21,1.01,-0.15,-3.97,-3.30,6.71
2740,0.23,1.00,-0.17,-4.82,-5.68,10.80
2760,0.21,1.04,-0.18,-5.74,-5.37,12.39
2780,0.25,1.03,-0.16,-5.31,-7.81,16.05
2800,0.26,1.00,-0.20,-5.49,-7.08,18.37
2820,0.27,1.00,-0.20,-7.39,-8.30,18.62
2840,0.27,0.98,-0.15,-9.40,-8.73,19.84
2860,0.28,0.98,-0.12,-10.80,-8.00,20.45
2880,0.31,0.94,-0.11,-10.50,-6.84,20.32
2900,0.32,0.92,-0.11,-10.38,-5.74,18.13
2920,0.32,0.94,-0.10,-9.83,-5.31,15.14
2940,0.33,0.93,-0.11,-9.52,-4.39,13.55
2960,0.33,0.94,-0.10,-9.22,-3.85,11.84
2980,0.33,0.97,-0.11,-8.97,-3.42,11.84
3000,0.34,0.96,-0.08,-8.00,-2.81,12.33
3020,0.35,0.95,-0.06,-5.92,-1.65,11.72
3040,0.36,0.94,-0.05,-3.36,0.24,10.19
3060,0.33,0.99,-0.11,-1.59,2.26,8.06
3080,0.31,1.06,-0.15,-2.44,0.55,10.19
3100,0.31,1.11,-0.16,-6.16,-1.77,16.91
3120,0.35,1.00,-0.15,-11.05,-3.91,25.82
3140,0.38,0.92,-0.10,-13.06,-5.25,27.16
3160,0.39,0.92,-0.03,-12.08,-4.88,25.76
3180,0.34,1.08,-0.03,-7.26,-2.50,26.98
3200,0.36,1.12,-0.09,-5.19,-2.38,33.94
3220,0.37,1.06,-0.07,-5.13,-2.08,40.89
3240,0.44,0.87,-0.09,-7.63,0.24,47.67
3260,0.47,0.76,-0.08,-6.90,0.92,46.08
3280,0.49,0.77,-0.04,-6.65,-0.79,39.31
3300,0.56,0.76,0.01,-1.53,-1.65,31.68
3320,0.54,0.80,-0.01,1.95,1.10,23.74
3340,0.53,0.84,-0.04,3.91,1.89,19.90
3360,0.52,0.86,-0.08,2.81,3.97,15.99
3380,0.55,0.81,-0.10,1.59,3.05,14.04
3400,0.58,0.76,-0.07,1.28,3.30,10.13
3420,0.67,0.53,-0.01,4.52,4.58,-6.10
3440,0.78,-0.23,0.02,10.07,8.48,-37.66
3460,0.34,0.84,-0.39,0.43,19.84,-75.74
3480,0.25,1.53,-0.20,0.43,-0.67,-60.18
3500,0.36,1.33,0.09,0.92,-9.52,-23.86
3520,0.40,1.06,-0.10,2.01,4.88,-7.45
3540,0.51,0.65,-0.17,0.61,8.12,-5.07
3560,0.45,0.75,-0.47,-24.17,10.44,-26.55
3580,0.33,1.18,-0.16,-32.65,-8.18,-35.64
3600,0.39,1.17,0.30,-25.70,-25.02,-18.98
3620,0.49,0.90,0.21,0.18,-6.71,-8.18
3640,0.49,0.72,0.02,12.08,7.32,-15.14
3660,0.36,0.88,-0.27,13.12,12.57,-21.36
3680,0.44,0.93,-0.31,-15.14,-0.55,-15.93
3700,0.34,1.12,-0.04,-21.79,-5.13,-18.74
3720,0.35,1.11,0.22,-13.98,-10.44,-14.28
3740,0.49,0.86,0.05,3.30,1.16,-5.86
3760,0.64,0.36,0.12,16.24,7.20,-14.47
3780,0.20,1.08,-0.26,13.85,22.52,-35.71
3800,0.29,1.21,-0.16,1.77,1.77,-16.78
3820,0.30,1.18,-0.01,-0.06,-2.81,-6.47
3840,0.31,1.10,-0.08,2.62,2.44,2.32
3860,0.39,0.90,-0.09,4.94,3.11,7.02
3880,0.45,0.70,-0.06,2.38,3.30,-1.53
3900,0.40,0.79,-0.02,2.56,3.91,-14.10
3920,0.33,0.99,-0.02,3.78,2.38,-18.62
3940,0.33,1.01,-0.13,4.46,3.05,-14.10
3960,0.34,1.02,-0.13,1.77,2.44,-12.70
3980,0.34,1.00,-0.07,1.40,1.89,-11.23
4000,0.49,0.58,0.14,11.84,7.14,-17.88
4020,0.42,0.65,0.10,27.59,18.80,-37.48
4040,0.10,1.32,-0.23,29.66,24.11,-44.43
4060,0.20,1.20,-0.37,12.27,9.22,-13.61
4080,0.27,1.13,-0.30,0.98,0.24,-5.49
4100,0.27,1.05,-0.18,-5.31,0.24,2.50
4120,0.34,0.84,-0.07,-7.45,-1.53,5.31
4140,0.36,0.80,-0.06,-4.52,1.34,-1.53
4160,0.31,0.90,-0.05,-2.01,2.01,-9.28
4180,0.31,0.98,-0.13,-0.49,3.54,-12.76
4200,0.28,1.02,-0.12,1.04,3.78,-13.00
4220,0.29,1.01,-0.09,3.85,5.25,-11.05
4240,0.36,0.87,-0.08,8.18,10.19,-16.42
4260,0.33,0.83,-0.16,9.03,19.47,-29.60
4280,0.11,1.15,-0.25,5.98,20.94,-32.23
4300,0.17,1.12,-0.11,-0.31,1.22,-11.96
4320,0.24,1.01,-0.12,-1.83,1.53,-6.29
4340,0.32,0.90,-0.13,-0.43,4.82,-6.90
4360,0.39,0.81,-0.21,1.40,12.63,-16.97
4380,-0.00,1.15,-0.08,3.85,16.91,-30.70
4400,0.11,1.13,-0.02,4.39,-0.98,-11.35
4420,0.25,0.99,-0.15,4.33,0.31,0.85
4440,0.23,0.98,-0.14,1.95,3.85,-0.92
4460,0.24,0.96,-0.17,2.69,4.58,-2.20
4480,0.25,0.96,-0.17,2.87,4.58,-5.92
4500,0.17,1.00,-0.13,2.50,7.75,-9.64
4520,0.16,1.02,-0.11,1.65,2.50,-5.19
4540,0.20,0.99,-0.15,1.53,0.79,-0.73
4560,0.21,0.98,-0.17,1.53,1.10,-0.24
4580,0.21,0.98,-0.16,0.98,0.49,-1.65
4600,0.21,0.98,-0.16,0.55,0.85,-2.62
4620,0.20,0.99,-0.16,-0.67,1.04,-2.69
4640,0.20,0.99,-0.16,-1.83,-0.43,-0.98
4660,0.20,0.99,-0.16,-2.32,-0.98,0.12
4680,0.20,0.99,-0.16,-2.93,-1.65,1.40
4700,0.18,1.00,-0.15,-3.78,-2.44,2.50
4720,0.20,0.99,-0.16,-5.37,-3.30,4.64
4740,0.19,1.00,-0.15,-6.65,-3.85,6.53
4760,0.20,1.00,-0.14,-7.87,-6.90,9.95
4780,0.20,1.01,-0.15,-8.97,-6.84,12.33
4800,0.20,1.03,-0.17,-11.90,-7.32,15.32
4820,0.23,1.03,-0.17,-14.83,-11.05,19.35
4840,0.25,1.00,-0.17,-15.32,-10.38,20.20
4860,0.26,1.02,-0.17,-16.97,-10.86,19.59
4880,0.29,1.01,-0.14,-19.29,-10.74,20.26
4900,0.27,1.00,-0.13,-21.18,-9.46,20.57
4920,0.26,1.02,-0.11,-22.58,-9.70,21.97
4940,0.29,0.98,-0.07,-22.83,-10.01,24.72
4960,0.30,0.98,-0.06,-22.34,-8.12,24.66
4980,0.31,0.97,-0.04,-21.36,-7.39,25.70
5000,0.34,0.99,-0.05,-18.92,-6.53,26.55
5020,0.33,1.00,-0.02,-16.91,-7.63,28.26
5040,0.34,0.99,-0.00,-13.18,-6.90,30.58
5060,0.34,1.01,-0.02,-10.50,-3.78,33.33
5080,0.36,0.98,-0.03,-10.13,-3.48,35.89
5100,0.38,0.92,-0.03,-9.95,-2.81,37.17
5120,0.43,0.89,-0.03,-10.74,-1.65,33.20
5140,0.45,0.86,0.02,-9.09,-2.93,30.46
5160,0.44,0.89,0.03,-5.98,-1.22,26.67
5180,0.46,0.87,0.04,-3.60,-0.79,25.15
5200,0.49,0.82,0.03,0.61,1.77,19.17
5220,0.50,0.80,0.02,2.56,3.48,13.31
5240,0.50,0.80,0.02,4.39,2.56,6.23
5260,0.52,0.76,-0.01,6.71,2.87,-3.36
5280,0.43,0.95,-0.12,4.33,5.25,-10.19
5300,0.42,1.01,-0.10,0.67,0.43,-6.10
5320,0.44,0.97,-0.03,-4.03,-3.11,2.01
5340,0.48,0.87,0.00,-4.58,-1.22,3.48
5360,0.55,0.71,0.05,-2.26,-0.12,-0.73
5380,0.65,0.38,0.18,8.36,1.46,-24.60
5400,0.26,1.18,-0.18,7.45,14.34,-46.02
5420,0.38,1.17,-0.09,4.09,-5.55,-27.59
5440,0.35,1.03,0.02,0.67,-3.97,-10.01
5460,0.41,0.95,-0.04,0.37,3.85,-7.69
5480,0.48,0.83,-0.02,0.49,2.44,-8.12
5500,0.49,0.75,-0.02,0.55,5.62,-20.45
5520,0.34,1.15,-0.08,-3.23,-3.05,-15.38
5540,0.36,1.05,-0.03,-4.76,-2.56,-2.99
5560,0.41,0.95,0.01,-3.36,-2.81,-0.31
5580,0.44,0.84,0.00,-0.49,1.34,-2.01
5600,0.46,0.74,0.02,2.62,3.05,-9.77
5620,0.43,0.83,0.06,8.97,2.99,-19.84
5640,0.31,1.14,-0.04,13.73,3.11,-19.35
5660,0.34,1.05,-0.08,13.49,4.03,-8.36
5680,0.38,0.96,-0.13,10.86,4.64,-4.27
5700,0.43,0.83,-0.07,5.00,4.15,-6.65
5720,0.50,0.64,0.09,7.81,3.72,-16.17
5740,0.30,1.00,-0.09,8.97,10.19,-28.20
5760,0.29,1.12,-0.10,6.29,2.69,-18.07
5780,0.33,1.02,-0.06,5.80,1.65,-10.56
5800,0.34,0.98,-0.10,6.47,5.19,-8.00
5820,0.47,0.60,0.04,7.20,8.12,-14.04
5840,0.45,0.62,0.06,15.50,15.08,-34.00
5860,0.12,1.33,-0.16,17.82,17.03,-44.25
5880,0.22,1.27,-0.25,12.57,8.73,-13.92
5900,0.28,1.09,-0.23,8.00,3.78,-5.92
5920,0.27,1.04,-0.18,4.27,4.52,-0.73
5940,0.32,0.93,-0.10,1.59,1.59,0.49
5960,0.46,0.57,0.00,3.66,6.53,-12.15
5980,0.37,0.78,-0.05,7.81,16.91,-35.64
6000,0.09,1.26,-0.26,8.48,22.16,-30.94
6020,0.17,1.17,-0.16,1.22,2.08,-10.38
6040,0.23,1.07,-0.10,-0.18,-1.89,0.00
6060,0.29,0.94,-0.12,2.14,0.18,4.21
6080,0.40,0.78,-0.13,2.26,5.98,-5.07
6100,0.50,0.62,-0.13,4.46,17.94,-24.23
6120,0.06,1.18,-0.44,2.75,33.75,-47.24
6140,0.16,1.18,0.07,0.43,-9.52,-6.77
6160,0.27,0.94,-0.19,5.07,1.89,4.76
6180,0.24,0.97,-0.15,3.30,2.99,0.98
6200,0.27,0.93,-0.17,3.54,5.13,-1.71
6220,0.29,0.94,-0.18,3.23,5.92,-7.45
6240,0.29,0.93,-0.20,5.00,10.25,-14.28
6260,0.19,1.04,-0.11,4.58,9.46,-19.78
6280,0.14,1.04,-0.11,3.91,6.47,-14.47
6300,0.15,1.00,-0.17,2.26,4.39,-7.81
6320,0.20,0.98,-0.17,0.37,2.01,-5.62
6340,0.21,0.98,-0.17,0.12,2.26,-6.47
6360,0.19,0.99,-0.16,0.61,2.69,-6.84
6380,0.19,0.99,-0.15,0.85,1.83,-6.23
6400,0.17,0.99,-0.16,0.55,0.92,-4.52
6420,0.18,0.99,-0.16,-0.18,0.18,-1.95
6440,0.19,0.99,-0.16,-0.37,0.24,-0.73
6460,0.19,0.99,-0.17,-0.98,0.06,-0.24
6480,0.19,0.98,-0.17,-1.04,-0.06,-0.49
6500,0.19,0.99,-0.17,-0.98,0.31,-0.49
6520,0.17,1.00,-0.16,-1.59,-0.31,0.73
6540,0.18,0.99,-0.16,-1.95,-1.46,2.01
6560,0.21,0.98,-0.17,-2.38,-1.89,2.44
6580,0.18,0.99,-0.15,-3.54,-2.14,2.38
6600,0.18,1.00,-0.14,-3.48,-3.30,3.91
6620,0.19,0.99,-0.16,-3.42,-3.48,5.92
6640,0.19,0.99,-0.17,-6.53,-4.33,6.71
6660,0.21,1.00,-0.15,-9.52,-6.41,8.12
6680,0.22,0.99,-0.15,-9.77,-5.62,8.24
6700,0.23,0.98,-0.15,-10.25,-4.09,7.26
6720,0.22,1.00,-0.14,-11.90,-5.25,7.81
6740,0.22,1.00,-0.15,-12.39,-5.43,9.22
6760,0.22,1.01,-0.14,-11.54,-5.80,10.44
6780,0.25,0.98,-0.13,-10.31,-5.80,10.74
6800,0.25,0.99,-0.12,-8.18,-4.82,10.19
6820,0.25,0.99,-0.11,-5.49,-4.76,11.17
6840,0.25,1.00,-0.11,-2.93,-4.39,12.02
6860,0.25,0.99,-0.13,-2.14,-4.03,13.06
6880,0.26,1.00,-0.14,-3.97,-3.78,12.94
6900,0.27,1.00,-0.13,-6.71,-4.03,15.01
6920,0.28,0.98,-0.13,-7.08,-3.72,15.87
6940,0.29,0.96,-0.11,-7.81,-3.85,15.26
6960,0.29,0.98,-0.10,-8.12,-4.09,14.34
6980,0.30,0.99,-0.09,-8.00,-4.03,14.40
7000,0.31,0.98,-0.09,-7.51,-3.48,15.14
7020,0.32,0.95,-0.08,-6.71,-2.50,14.22
7040,0.33,0.92,-0.07,-5.37,-1.89,12.51
7060,0.34,0.92,-0.07,-4.70,-1.59,9.58
7080,0.33,0.96,-0.08,-4.21,-0.43,6.10
7100,0.31,1.02,-0.13,-5.74,-0.24,6.77
7120,0.29,1.07,-0.13,-8.30,-1.71,10.50
7140,0.31,1.04,-0.11,-11.54,-3.36,17.88
7160,0.35,0.94,-0.09,-13.24,-4.15,20.14
7180,0.36,0.92,-0.06,-13.61,-4.15,18.92
7200,0.36,0.96,-0.03,-11.17,-4.09,17.88
7220,0.35,1.01,-0.03,-9.03,-3.17,19.17
7240,0.35,1.02,-0.04,-6.77,-2.26,22.40
7260,0.36,1.04,-0.06,-5.43,-1.28,27.59
7280,0.39,0.97,-0.02,-2.56,-1.89,31.13
7300,0.39,0.95,-0.04,-1.22,-1.10,32.23
7320,0.42,0.91,-0.04,-1.59,-1.83,32.78
7340,0.43,0.90,-0.04,-1.34,-1.04,30.15
7360,0.45,0.91,-0.04,-0.79,-1.40,29.48
7380,0.46,0.88,-0.04,-0.18,-1.22,28.69
7400,0.48,0.87,-0.07,-0.67,-1.34,24.35
7420,0.49,0.87,-0.06,-2.14,-2.08,23.50
7440,0.47,0.92,-0.04,-2.81,-2.01,21.00
7460,0.48,0.94,-0.03,-3.36,-1.83,22.34
7480,0.51,0.88,-0.03,-2.93,-2.20,23.44
7500,0.52,0.86,-0.04,-2.75,-1.40,23.19
7520,0.52,0.85,-0.04,-2.81,-1.22,21.42
7540,0.55,0.81,-0.03,-3.23,-0.92,19.96
7560,0.53,0.84,-0.03,-3.30,0.18,16.97
7580,0.55,0.83,-0.03,-3.05,0.73,14.59
7600,0.56,0.83,-0.03,-2.62,0.67,12.08
7620,0.56,0.82,-0.03,-1.83,0.31,10.31
7640,0.58,0.80,-0.01,-0.92,0.79,7.20
7660,0.60,0.71,-0.02,0.79,2.14,3.54
7680,0.63,0.63,-0.01,2.93,2.08,-4.09
7700,0.66,0.47,-0.05,3.97,2.20,-15.14
7720,0.60,0.53,-0.25,-4.58,4.70,-40.28
7740,0.48,0.93,-0.11,-12.57,0.55,-53.04
7760,0.44,1.19,0.22,-5.00,-6.65,-54.08
7780,0.49,0.99,0.27,17.15,5.62,-34.67
7800,0.49,0.77,-0.00,27.34,15.26,-34.00
7820,0.44,0.74,-0.35,24.72,21.42,-35.95
7840,0.46,0.87,-0.45,-12.39,6.53,-40.47
7860,0.30,1.27,-0.05,-18.68,-4.94,-44.86
7880,0.31,1.33,0.26,-14.28,-10.31,-27.71
7900,0.46,0.84,0.05,7.02,7.08,-9.95
7920,0.41,0.85,-0.22,9.52,14.34,-15.20
7940,0.43,0.76,-0.23,1.28,6.35,-16.72
7960,0.48,0.78,-0.12,-14.28,1.16,-31.43
7980,0.45,0.91,0.16,-7.69,-5.49,-35.64
8000,0.46,0.78,0.22,5.55,4.39,-37.66
8020,0.24,1.19,-0.08,12.63,11.11,-37.05
8040,0.29,1.11,-0.22,8.97,6.65,-21.79
8060,0.35,1.01,-0.16,2.44,2.20,-15.69
8080,0.39,0.92,-0.03,1.10,2.08,-19.59
8100,0.44,0.62,0.21,15.26,7.20,-33.02
8120,0.17,1.18,-0.08,24.60,17.52,-41.75
8140,0.18,1.29,-0.20,23.13,9.03,-23.25
8160,0.30,1.07,-0.24,12.57,5.25,-6.59
8180,0.30,0.99,-0.22,4.76,8.61,-3.30
8200,0.36,0.84,-0.06,0.85,4.82,-5.31
8220,0.24,0.99,-0.14,7.39,14.22,-20.94
8240,0.17,1.20,-0.22,4.82,6.53,-14.71
8260,0.24,1.08,-0.19,-0.85,0.06,-1.65
8280,0.29,0.97,-0.13,-5.80,-0.79,1.71
8300,0.31,0.93,-0.07,-4.94,-0.37,0.67
8320,0.33,0.88,-0.08,-1.10,2.32,-2.87
8340,0.39,0.75,-0.07,2.01,9.58,-18.01
8360,0.26,1.02,-0.13,3.85,18.13,-30.76
8380,0.13,1.15,-0.18,3.60,16.72,-26.25
8400,0.20,1.09,-0.12,2.20,3.23,-9.22
8420,0.28,0.97,-0.12,6.53,6.77,-6.16
8440,0.34,0.88,-0.16,8.48,12.08,-9.70
8460,0.35,0.87,-0.25,9.46,22.58,-26.92
8480,-0.05,1.23,-0.04,11.84,14.71,-24.66
8500,0.17,1.05,-0.09,9.34,-2.75,-1.22
8520,0.26,0.94,-0.22,5.43,0.92,2.93
8540,0.21,1.00,-0.13,-1.59,0.24,0.31
8560,0.24,0.97,-0.16,0.43,0.24,0.92
8580,0.25,0.97,-0.16,3.11,0.55,-2.01
8600,0.25,0.96,-0.19,4.27,4.64,-6.96
8620,0.18,1.00,-0.15,3.36,6.41,-10.19
8640,0.15,1.03,-0.13,2.87,3.05,-5.55
8660,0.23,0.97,-0.17,0.43,-0.61,1.40
8680,0.22,0.97,-0.17,0.00,0.79,0.12
8700,0.22,0.98,-0.17,-0.12,1.53,-0.98
8720,0.22,0.98,-0.17,-0.31,1.89,-2.38
8740,0.22,0.98,-0.17,-0.31,2.20,-3.17
8760,0.21,0.98,-0.17,-0.43,2.44,-3.85
8780,0.20,0.99,-0.16,-0.61,1.22,-2.75
8800,0.20,0.99,-0.16,-0.55,0.61,-1.83
8820,0.20,0.98,-0.17,-0.73,-0.12,-0.92
8840,0.20,0.98,-0.17,-2.81,-1.46,0.43
8860,0.19,1.00,-0.15,-3.48,-1.77,1.65
8880,0.18,1.00,-0.16,-4.03,-2.75,3.17
8900,0.20,1.00,-0.16,-6.10,-4.76,6.53
8920,0.22,0.99,-0.16,-6.47,-6.77,9.09
8940,0.21,1.01,-0.16,-7.63,-6.71,10.68
8960,0.21,1.02,-0.15,-8.73,-8.54,13.61
8980,0.24,1.00,-0.16,-9.40,-8.85,16.24
9000,0.25,0.98,-0.17,-9.77,-7.87,15.32
9020,0.26,0.98,-0.16,-9.83,-7.81,14.22
9040,0.26,1.00,-0.15,-8.67,-7.02,13.37
9060,0.25,1.02,-0.15,-8.00,-6.53,14.71
9080,0.29,1.00,-0.12,-7.14,-7.26,16.85
9100,0.30,0.94,-0.14,-6.59,-5.37,17.76
9120,0.32,0.89,-0.10,-6.53,-4.39,14.83
9140,0.33,0.87,-0.07,-4.70,-2.93,10.25
9160,0.33,0.86,-0.06,-0.24,-0.43,2.20
9180,0.30,0.96,-0.12,1.34,1.16,-2.44
9200,0.27,1.02,-0.14,0.79,0.49,-2.32
9220,0.26,1.07,-0.19,-3.30,-1.16,3.66
9240,0.29,1.00,-0.17,-7.14,-2.38,7.75
9260,0.31,0.95,-0.14,-9.70,-3.48,8.85
9280,0.31,0.93,-0.10,-11.47,-3.72,6.96
9300,0.30,1.00,-0.10,-10.86,-3.72,7.32
9320,0.31,1.00,-0.10,-10.74,-4.03,9.77
9340,0.32,0.98,-0.10,-10.07,-3.66,12.15
9360,0.32,0.97,-0.10,-10.50,-3.42,11.54
9380,0.34,0.96,-0.08,-9.46,-4.15,11.47
9400,0.34,0.96,-0.06,-8.67,-4.03,11.35
9420,0.36,0.92,-0.05,-5.19,-2.50,10.25
9440,0.38,0.90,-0.04,-3.05,-1.71,7.81
9460,0.40,0.81,-0.01,-0.12,0.06,3.30
9480,0.39,0.76,0.01,6.29,7.26,-16.24
9500,0.28,1.09,-0.15,8.42,7.39,-23.50
9520,0.26,1.18,-0.18,5.62,2.81,-13.37
9540,0.29,1.10,-0.18,-1.83,-0.73,2.75
9560,0.31,1.01,-0.13,-5.98,-1.53,9.46
9580,0.35,0.92,-0.09,-8.85,-2.32,11.47
9600,0.35,0.94,-0.05,-7.69,-2.38,8.54
9620,0.36,0.94,-0.04,-5.98,-1.77,7.87
9640,0.35,0.96,-0.07,-4.46,-0.85,6.96
9660,0.35,0.97,-0.08,-3.42,-0.85,6.41
9680,0.35,0.98,-0.07,-2.93,-1.65,7.32
9700,0.36,0.96,-0.07,-2.44,-1.28,8.06
9720,0.38,0.90,-0.07,-2.01,-1.22,6.23
9740,0.40,0.84,-0.04,-1.40,-0.18,2.08
9760,0.39,0.87,-0.04,-0.67,1.04,-3.05
9780,0.35,0.99,-0.09,-1.10,1.59,-4.27
9800,0.36,0.97,-0.10,-2.50,1.10,-2.75
9820,0.35,1.00,-0.07,-3.23,0.31,-1.95
9840,0.33,1.05,-0.07,-3.30,0.31,0.85
9860,0.34,1.02,-0.11,-4.27,0.00,8.12
9880,0.36,0.99,-0.13,-7.08,-0.92,11.23
9900,0.37,0.95,-0.08,-8.91,-2.14,12.70
9920,0.37,0.96,-0.03,-7.93,-2.56,13.61
9940,0.38,0.95,-0.04,-5.98,-2.26,14.65
9960,0.40,0.93,-0.04,-4.46,-2.01,15.08
9980,0.42,0.90,-0.04,-3.54,-0.98,12.94
10000,0.44,0.88,-0.04,-2.44,0.00,9.70
10020,0.46,0.74,0.02,-0.37,0.12,5.19
10040,0.39,1.00,-0.11,-1.28,2.62,-1.95
10060,0.36,1.08,-0.12,-4.58,-0.61,3.17
10080,0.38,1.04,-0.09,-8.00,-2.56,9.95
10100,0.39,1.02,-0.06,-10.19,-2.08,16.97
10120,0.41,0.99,-0.04,-9.70,-2.38,21.61
10140,0.42,0.94,-0.04,-10.99,-1.46,24.11
10160,0.46,0.89,-0.01,-10.19,-0.43,22.83
10180,0.48,0.85,0.03,-5.80,-0.79,22.16
10200,0.45,0.96,0.01,-2.56,1.34,19.65
10220,0.45,0.96,-0.01,0.24,0.55,22.77
10240,0.48,0.88,-0.06,0.06,0.43,25.57
10260,0.49,0.84,-0.07,-1.95,-0.24,23.99
10280,0.53,0.79,-0.02,-2.26,-0.73,20.75
10300,0.57,0.72,0.06,0.43,0.00,11.23
10320,0.59,0.63,0.07,5.55,2.38,2.01
10340,0.52,0.76,-0.08,5.43,6.23,-8.48
10360,0.54,0.69,-0.16,-2.01,2.81,-17.46
10380,0.48,0.92,-0.04,-6.10,-0.18,-27.40
10400,0.55,0.85,0.21,-0.24,-3.66,-29.48
10420,0.38,1.04,-0.06,8.85,8.00,-37.90
10440,0.40,1.03,-0.21,5.07,3.66,-29.42
10460,0.38,1.06,-0.26,-4.52,4.21,-20.39
10480,0.40,1.05,-0.04,-15.38,-3.23,-9.70
10500,0.51,0.74,-0.04,-18.74,-4.15,-7.20
10520,0.58,0.57,-0.02,-21.73,-1.89,-18.80
10540,0.45,0.90,0.09,-11.17,0.12,-42.91
10560,0.30,1.30,0.20,-3.66,-6.96,-27.10
10580,0.38,1.06,0.05,6.77,1.65,-7.39
10600,0.47,0.87,-0.04,12.57,5.37,-8.79
10620,0.61,0.31,0.31,27.34,10.25,-19.90
10640,0.23,1.04,-0.25,27.04,24.05,-41.63
10660,0.33,1.21,-0.28,13.92,0.67,-30.40
10680,0.32,1.17,-0.04,3.48,-4.15,-14.16
10700,0.32,1.07,-0.03,2.99,2.44,-5.00
10720,0.37,0.95,-0.10,1.89,3.60,0.49
10740,0.39,0.84,-0.07,-0.43,1.83,-3.54
10760,0.33,1.02,-0.09,-3.05,0.43,-6.29
10780,0.34,1.04,-0.04,-4.27,-2.32,-1.34
10800,0.38,0.92,-0.02,-2.75,-1.04,2.14
10820,0.39,0.88,-0.02,0.00,1.65,0.06
10840,0.41,0.82,-0.03,3.66,3.30,-3.23
10860,0.50,0.71,0.02,6.16,3.66,-17.94
10880,0.32,0.98,0.07,12.88,6.59,-28.44
10900,0.26,1.14,0.06,21.24,6.77,-24.60
10920,0.31,1.04,-0.06,27.28,12.70,-12.33
10940,0.39,0.86,-0.22,22.46,14.59,-14.22
10960,0.41,0.62,-0.03,16.05,14.34,-25.82
10980,0.25,1.02,-0.19,14.71,15.38,-35.71
11000,0.21,1.19,-0.25,6.90,8.48,-23.99
11020,0.26,1.08,-0.13,3.48,3.54,-13.85
11040,0.30,0.98,-0.15,2.32,6.41,-9.03
11060,0.52,0.56,-0.08,1.46,13.73,-21.79
11080,0.21,0.99,-0.33,2.69,34.97,-47.00
11100,-0.16,1.52,-0.09,-3.97,13.06,-34.36
11120,0.31,0.94,-0.09,9.09,-2.75,8.73
11140,0.29,0.90,-0.22,10.56,5.43,3.85
11160,0.25,0.98,-0.13,6.53,4.70,0.43
11180,0.39,0.81,-0.19,6.90,8.91,-5.68
11200,0.38,0.83,-0.26,5.86,18.13,-23.56
11220,0.01,1.20,-0.08,5.00,20.69,-32.10
11240,0.24,0.99,-0.16,6.23,1.10,-0.92
11260,0.23,0.96,-0.20,2.32,3.85,-1.53
11280,0.23,0.99,-0.15,0.06,3.17,-3.54
11300,0.26,0.95,-0.19,1.22,4.76,-6.53
11320,0.24,0.97,-0.18,1.59,6.65,-10.99
11340,0.18,1.00,-0.15,1.28,7.45,-12.76
11360,0.15,1.03,-0.12,0.73,2.81,-5.07
11380,0.21,0.98,-0.17,0.18,1.53,-1.83
11400,0.21,0.98,-0.17,-0.61,1.40,-1.89
11420,0.21,0.98,-0.17,-0.85,1.22,-2.38
11440,0.21,0.98,-0.17,-0.06,1.83,-3.11
11460,0.20,0.98,-0.17,-0.37,2.56,-3.78
11480,0.19,0.99,-0.16,-0.73,2.38,-3.66
11500,0.19,0.99,-0.16,-0.92,0.61,-0.73
11520,0.20,0.98,-0.17,-1.10,0.00,0.49
11540,0.21,0.98,-0.17,-1.28,-0.18,-0.18
11560,0.20,0.98,-0.17,-0.98,0.98,-1.10
11580,0.19,0.99,-0.17,-1.65,1.28,-1.59
11600,0.19,0.99,-0.16,-1.89,0.79,-1.28
11620,0.20,0.98,-0.17,-1.46,-0.85,0.85
11640,0.19,0.98,-0.17,-1.65,-1.28,1.53
11660,0.20,0.97,-0.18,-2.81,-1.59,2.01
11680,0.19,0.99,-0.16,-3.97,-1.28,1.46
11700,0.18,1.00,-0.14,-3.30,-1.89,2.32
11720,0.19,0.99,-0.15,-3.11,-2.81,4.64
11740,0.21,0.98,-0.17,-4.94,-3.54,5.86
11760,0.21,0.99,-0.16,-6.41,-4.70,7.26
11780,0.21,1.00,-0.15,-7.93,-5.92,8.61
11800,0.21,1.00,-0.14,-9.95,-6.10,11.66
11820,0.21,1.02,-0.15,-10.13,-7.02,14.83
11840,0.22,1.02,-0.19,-11.90,-8.00,17.33
11860,0.23,1.01,-0.18,-13.06,-8.79,17.70
11880,0.26,0.99,-0.16,-12.76,-8.61,16.66
11900,0.26,1.02,-0.14,-12.45,-8.54,17.09
11920,0.27,1.03,-0.14,-10.74,-7.39,19.84
11940,0.27,1.02,-0.15,-10.44,-6.10,24.48
11960,0.29,0.97,-0.13,-11.29,-6.59,26.31
11980,0.30,0.95,-0.10,-11.96,-7.14,25.82
12000,0.33,0.90,-0.08,-11.35,-6.04,22.58
12020,0.35,0.87,-0.04,-9.46,-5.37,18.25
12040,0.37,0.87,-0.02,-6.10,-2.99,13.12
12060,0.44,0.66,0.05,0.55,1.71,1.34
12080,0.37,0.73,0.03,6.35,7.69,-15.08
12100,0.21,1.21,-0.19,7.32,5.68,-20.75
12120,0.21,1.21,-0.20,1.53,-1.34,5.00
12140,0.29,1.09,-0.19,-3.36,-2.56,17.70
12160,0.31,1.01,-0.16,-7.87,-2.56,24.05
12180,0.34,0.93,-0.13,-14.16,-3.97,24.84
12200,0.37,0.90,-0.08,-14.77,-5.62,22.58
12220,0.38,0.89,-0.04,-13.73,-5.98,19.29
12240,0.38,0.88,-0.01,-10.38,-4.52,13.85
12260,0.38,0.97,-0.05,-5.92,-3.60,11.96
12280,0.39,0.95,-0.05,-3.97,-3.17,12.21
12300,0.38,0.94,-0.07,-3.78,-1.95,11.47
12320,0.39,0.93,-0.09,-5.00,-1.46,9.89
12340,0.40,0.93,-0.07,-6.10,-2.50,9.22
12360,0.40,0.93,-0.07,-6.59,-2.20,8.73
12380,0.42,0.88,-0.05,-6.90,-2.38,7.51
12400,0.45,0.84,-0.02,-6.65,-1.59,4.27
12420,0.49,0.72,0.06,-3.42,-0.43,-2.01
12440,0.39,0.99,0.00,2.32,1.83,-14.34
12460,0.35,1.08,-0.06,5.31,2.56,-9.52
12480,0.38,1.01,-0.10,5.19,2.50,-2.14
12500,0.41,0.88,-0.05,3.23,2.69,0.85
12520,0.40,0.88,-0.04,3.85,3.66,-2.50
12540,0.36,1.00,-0.08,3.78,2.69,-3.97
12560,0.34,1.05,-0.15,0.12,-0.06,4.52
12580,0.38,1.00,-0.13,-4.33,-1.10,10.25
12600,0.40,0.95,-0.06,-7.20,-1.89,12.88
12620,0.41,0.92,-0.02,-6.16,-0.73,12.33
12640,0.41,0.93,-0.06,-4.58,-0.31,10.50
12660,0.42,0.93,-0.07,-3.85,-0.73,10.25
12680,0.42,0.93,-0.07,-4.33,-0.73,10.25
12700,0.43,0.92,-0.04,-4.88,-1.10,10.74
12720,0.45,0.88,-0.03,-4.27,-0.55,9.89
12740,0.49,0.82,-0.02,-2.87,0.55,6.47
12760,0.52,0.63,0.06,2.44,2.50,-9.09
12780,0.40,0.95,-0.06,4.82,4.82,-22.16
12800,0.36,1.14,-0.11,4.58,1.40,-17.09
12820,0.38,1.05,-0.14,0.31,0.37,-0.85
12840,0.40,0.98,-0.13,-4.33,0.61,4.15
12860,0.42,0.94,-0.10,-8.61,-0.61,6.90
12880,0.40,0.98,-0.07,-11.17,-1.53,8.18
12900,0.41,0.98,-0.04,-11.47,-2.87,10.99
12920,0.43,0.95,-0.01,-10.13,-1.95,14.10
12940,0.45,0.93,-0.00,-6.84,-0.55,15.01
12960,0.44,0.94,-0.02,-4.46,0.67,15.63
12980,0.46,0.91,-0.03,-3.05,0.55,16.24
13000,0.47,0.88,-0.04,-2.44,0.49,14.28
13020,0.47,0.89,-0.04,-2.87,0.37,12.39
13040,0.48,0.88,-0.02,-2.75,-0.61,11.41
13060,0.47,0.92,-0.04,-4.09,-0.12,10.80
13080,0.49,0.87,-0.04,-4.82,0.55,10.31
13100,0.49,0.88,-0.03,-5.37,1.04,8.67
13120,0.50,0.87,0.00,-4.58,0.49,6.90
13140,0.49,0.91,-0.00,-1.77,1.10,5.25
13160,0.47,0.96,-0.03,-0.79,1.59,6.53
13180,0.46,0.97,-0.03,-0.61,1.10,9.40
13200,0.48,0.97,-0.04,-2.32,0.92,14.89
13220,0.50,0.91,-0.01,-1.71,0.06,18.62
13240,0.51,0.85,-0.01,0.06,0.55,19.78
13260,0.53,0.85,-0.00,3.66,1.34,18.07
13280,0.56,0.82,0.01,5.25,0.49,17.03
13300,0.59,0.73,0.03,7.39,0.98,13.49
13320,0.59,0.75,-0.00,12.94,4.94,2.62
13340,0.59,0.69,0.01,16.48,4.03,-2.99
13360,0.61,0.57,-0.11,17.33,4.82,-12.39
13380,0.58,0.40,-0.42,2.69,3.17,-31.92
13400,0.63,0.49,-0.44,-25.15,-3.60,-49.13
13420,0.29,1.36,0.11,-28.50,-9.95,-73.00
13440,0.30,1.49,0.58,-5.00,-9.95,-34.12
13460,0.43,0.99,-0.01,12.82,5.49,-14.77
13480,0.49,0.79,-0.39,10.74,10.44,-11.84
13500,0.48,0.75,-0.35,-4.58,3.60,-19.23
13520,0.40,1.00,0.04,-19.96,-2.14,-28.14
13540,0.40,1.10,0.23,-10.01,-7.63,-23.74
13560,0.39,1.06,0.10,0.37,-0.61,-14.04
13580,0.51,0.73,-0.09,9.03,4.64,-12.70
13600,0.56,0.51,-0.00,7.81,5.92,-24.41
13620,0.35,0.99,-0.05,7.63,9.52,-40.16
13640,0.28,1.30,0.09,17.52,1.77,-27.10
13660,0.35,1.08,-0.00,24.66,7.69,-10.13
13680,0.46,0.82,-0.12,25.39,12.70,-6.90
13700,0.42,0.58,-0.01,23.50,18.80,-25.57
13720,0.24,1.12,-0.19,23.62,18.80,-33.39
13740,0.27,1.22,-0.15,22.83,6.77,-20.94
13760,0.35,0.99,-0.16,19.59,7.45,-6.59
13780,0.40,0.86,-0.18,15.08,10.13,-7.69
13800,0.41,0.71,-0.10,10.93,11.41,-16.11
13820,0.27,1.01,-0.21,9.46,7.81,-21.85
13840,0.29,1.11,-0.20,7.51,1.83,-11.29
13860,0.33,1.00,-0.21,4.64,1.22,-5.25
13880,0.35,0.90,-0.15,2.32,2.50,-5.68
13900,0.42,0.79,-0.09,2.93,5.37,-11.96
13920,0.47,0.51,-0.00,5.25,11.90,-26.73
13940,0.25,0.98,-0.24,7.14,24.29,-44.98
13960,0.11,1.34,-0.27,-1.22,8.18,-29.36
13980,0.23,1.13,-0.06,-1.34,-1.71,-9.70
14000,0.29,0.94,-0.17,5.19,3.48,-1.59
14020,0.34,0.86,-0.21,-2.08,3.91,-7.08
14040,0.45,0.67,-0.18,-5.43,9.16,-19.35
14060,0.17,1.05,-0.24,-5.98,19.96,-37.17
14080,0.11,1.20,-0.05,-2.20,-1.65,-10.68
14100,0.27,0.95,-0.18,0.79,-0.55,1.77
14120,0.26,0.96,-0.18,-0.06,1.53,-1.89
14140,0.26,0.95,-0.18,-0.24,2.14,-3.30
14160,0.28,0.94,-0.17,-0.55,2.20,-6.23
14180,0.32,0.90,-0.21,0.12,5.62,-11.72
14200,0.15,1.05,-0.16,0.98,11.78,-20.94
14220,0.13,1.07,-0.10,2.62,5.13,-13.49
14240,0.20,1.00,-0.16,2.32,2.81,-4.64
14260,0.23,0.97,-0.18,-0.49,2.56,-3.30
14280,0.22,0.97,-0.17,-0.79,3.30,-3.66
14300,0.20,0.99,-0.17,-0.43,3.30,-5.19
14320,0.16,1.01,-0.15,-1.28,0.49,0.73
14340,0.22,0.98,-0.17,-3.05,-1.59,2.75
14360,0.21,0.98,-0.17,-3.60,-1.16,2.32
14380,0.20,0.98,-0.19,-5.68,-1.77,2.81
14400,0.19,1.00,-0.15,-8.61,-4.70,4.76
14420,0.22,0.99,-0.17,-9.95,-6.84,7.39
14440,0.22,1.00,-0.15,-10.50,-7.39,8.12
14460,0.23,0.99,-0.14,-10.93,-7.81,11.47
14480,0.24,0.99,-0.17,-12.63,-7.14,12.27
14500,0.27,0.97,-0.16,-13.43,-8.67,12.15
14520,0.25,0.98,-0.16,-12.63,-6.04,8.61
14540,0.27,0.97,-0.13,-13.55,-7.57,7.87
14560,0.26,1.00,-0.14,-13.73,-6.77,7.39
14580,0.27,0.98,-0.13,-13.31,-6.16,7.51
14600,0.26,1.01,-0.13,-13.00,-5.86,7.20
14620,0.28,0.97,-0.11,-12.88,-7.39,8.30
14640,0.27,1.03,-0.10,-13.73,-5.98,9.03
14660,0.27,1.01,-0.10,-13.92,-4.46,10.25
14680,0.26,1.04,-0.10,-13.37,-4.94,13.12
14700,0.28,1.04,-0.09,-13.37,-4.94,19.47
14720,0.29,1.00,-0.08,-12.88,-5.07,22.03
14740,0.31,0.97,-0.07,-13.18,-4.52,23.38
14760,0.33,0.94,-0.07,-13.18,-3.91,22.03
14780,0.34,0.95,-0.05,-13.98,-4.33,20.69
14800,0.33,0.98,-0.04,-13.85,-3.78,19.78
14820,0.35,0.96,-0.03,-13.12,-3.85,20.08
14840,0.35,0.96,-0.05,-12.15,-2.99,20.08
14860,0.38,0.92,-0.02,-11.41,-3.30,19.53
14880,0.38,0.93,-0.00,-9.28,-2.56,17.76
14900,0.39,0.92,-0.01,-6.04,-2.08,16.05
14920,0.40,0.91,-0.02,-5.25,-1.40,14.53
14940,0.40,0.92,-0.02,-5.00,-0.73,12.63
14960,0.40,0.92,-0.02,-4.70,-0.67,11.66
14980,0.41,0.92,-0.01,-4.33,-0.55,10.80
15000,0.42,0.90,0.02,-3.05,-0.43,9.58
15020,0.42,0.90,-0.01,-1.53,0.85,6.59
15040,0.41,0.94,-0.05,-2.75,1.16,4.94
15060,0.39,1.00,-0.04,-3.91,0.85,5.74
15080,0.39,1.01,-0.04,-5.68,0.67,11.90
15100,0.42,0.94,-0.03,-5.98,0.55,14.89
15120,0.44,0.89,-0.03,-6.47,0.73,15.26
15140,0.44,0.92,0.00,-5.37,0.73,12.63
15160,0.44,0.92,0.02,-3.97,0.73,13.12
15180,0.43,0.95,-0.01,-3.36,1.65,12.76
15200,0.44,0.96,-0.02,-3.78,1.59,15.14
15220,0.45,0.94,-0.01,-4.82,1.53,16.24
15240,0.46,0.94,-0.00,-5.13,1.77,17.15
15260,0.47,0.92,-0.01,-4.33,2.44,17.64
15280,0.47,0.90,-0.00,-3.66,2.75,18.13
15300,0.47,0.92,0.00,-3.78,2.32,18.55
15320,0.50,0.86,0.01,-3.17,1.16,20.32
15340,0.53,0.81,0.02,-1.46,2.08,15.50
15360,0.53,0.83,0.02,0.12,2.44,11.96
15380,0.53,0.83,0.02,1.71,2.01,8.79
15400,0.51,0.90,0.00,3.66,2.20,6.71
15420,0.50,0.92,-0.03,2.93,2.14,7.93
15440,0.51,0.92,-0.03,2.26,1.16,9.77
15460,0.50,0.89,-0.03,-0.67,1.16,12.88
15480,0.54,0.82,-0.02,-1.77,1.04,13.31
15500,0.55,0.83,-0.00,-2.01,0.92,10.99
15520,0.55,0.84,0.01,-0.92,0.61,8.36
15540,0.57,0.80,0.03,0.67,1.04,6.10
15560,0.59,0.74,0.00,1.71,1.95,2.81
15580,0.59,0.67,-0.07,-14.71,2.20,-6.84
15600,0.57,0.76,-0.08,-2.38,0.49,-17.64
15620,0.52,0.93,0.06,-1.34,-2.75,-22.58
15640,0.49,0.99,0.11,1.16,-1.40,-20.02
15660,0.51,0.91,-0.01,4.88,3.42,-13.73
15680,0.55,0.74,-0.07,4.94,4.21,-13.06
15700,0.54,0.73,-0.13,2.14,3.78,-18.55
15720,0.51,0.80,-0.11,-9.09,-3.05,-31.56
15740,0.45,1.05,0.09,-7.57,-8.30,-37.72
15760,0.40,1.12,0.24,1.46,-6.35,-28.81
15780,0.42,1.02,-0.04,10.01,3.72,-14.28
15800,0.48,0.84,-0.18,7.81,3.66,-8.36
15820,0.55,0.53,-0.27,-3.85,2.26,-10.86
15840,0.55,0.81,-0.06,-27.65,-4.33,-42.91
15860,0.46,0.97,0.38,-11.54,-11.72,-54.44
15880,0.50,0.88,0.54,12.08,-9.09,-47.79
15900,0.13,1.35,-0.13,33.08,8.42,-38.02
15920,0.29,1.18,-0.36,25.76,12.88,-10.31
15940,0.37,1.02,-0.31,8.36,7.20,-1.22
15960,0.35,1.02,-0.09,-5.92,-2.32,3.23
15980,0.45,0.80,0.07,-3.30,-1.83,2.87
16000,0.49,0.69,0.07,3.11,0.06,-5.49
16020,0.36,0.96,-0.06,7.08,1.71,-14.89
16040,0.34,1.07,-0.05,5.25,0.92,-9.03
16060,0.37,1.02,-0.05,4.46,0.67,-3.97
16080,0.39,0.95,-0.05,4.82,3.05,-2.14
16100,0.47,0.59,0.07,8.30,5.92,-10.13
16120,0.41,0.76,0.00,15.32,9.64,-24.17
16140,0.31,1.09,-0.06,17.58,6.59,-29.66
16160,0.33,1.05,-0.10,19.17,5.86,-16.72
16180,0.35,0.98,-0.17,12.76,8.79,-14.65
16200,0.40,0.73,-0.07,10.50,10.19,-17.82
16220,0.24,0.99,-0.12,13.55,15.26,-31.49
16240,0.25,1.14,-0.14,12.27,6.23,-26.31
16260,0.24,1.14,-0.20,10.68,6.84,-17.03
16280,0.30,1.02,-0.19,3.72,5.43,-9.28
16300,0.36,0.85,-0.07,2.81,4.52,-8.79
16320,0.33,0.84,-0.02,5.74,8.06,-15.93
16340,0.22,1.07,-0.18,6.53,5.49,-13.79
16360,0.26,1.04,-0.23,1.53,3.54,-8.00
16380,0.27,1.04,-0.16,-4.46,-0.06,-5.86
16400,0.28,1.00,-0.08,-4.70,-0.43,-2.75
16420,0.34,0.85,-0.07,-2.01,2.56,-5.80
16440,0.31,0.88,-0.14,0.12,7.20,-13.85
16460,0.22,1.05,-0.17,-1.53,6.53,-14.53
16480,0.24,1.06,-0.10,-2.75,1.46,-7.51
16500,0.26,1.01,-0.09,3.97,2.14,-1.71
16520,0.29,0.93,-0.14,8.48,5.98,1.16
16540,0.41,0.80,-0.11,3.91,9.64,-9.70
16560,0.51,0.65,-0.15,4.82,22.52,-29.17
16580,-0.08,1.33,-0.46,6.16,40.34,-49.68
16600,0.20,1.12,-0.02,4.27,-7.69,-1.46
16620,0.28,0.93,-0.22,2.56,0.49,4.15
16640,0.24,0.99,-0.12,-1.28,1.71,-0.12
16660,0.29,0.92,-0.18,2.87,6.23,-1.34
16680,0.30,0.91,-0.19,4.64,8.30,-9.16
16700,0.22,0.99,-0.19,6.77,13.73,-16.36
16720,0.10,1.07,-0.09,6.04,5.98,-10.93
16740,0.21,0.99,-0.16,3.97,2.62,-1.53
16760,0.22,0.97,-0.19,2.56,4.64,-0.92
16780,0.23,0.97,-0.17,1.40,3.72,-3.97
16800,0.22,0.98,-0.17,1.10,4.70,-5.49
16820,0.20,0.98,-0.17,0.67,4.70,-6.71
16840,0.17,1.00,-0.15,0.31,1.89,-4.03
16860,0.19,0.99,-0.16,-0.24,0.37,-0.49
16880,0.21,0.98,-0.17,-0.37,-0.12,0.31
16900,0.21,0.98,-0.17,-0.37,0.24,-0.43
16920,0.21,0.98,-0.17,-0.73,0.43,-1.04
16940,0.20,0.98,-0.17,-0.67,0.61,-1.28
16960,0.20,0.98,-0.16,-0.43,0.49,-0.85
16980,0.20,0.98,-0.17,-0.73,-1.34,1.65
17000,0.20,0.99,-0.17,-1.83,-1.65,2.14
17020,0.22,0.98,-0.17,-2.50,-2.26,2.14
17040,0.20,0.98,-0.17,-2.81,-1.71,1.95
17060,0.20,0.99,-0.16,-3.42,-1.83,2.20
17080,0.20,0.99,-0.16,-4.58,-2.99,3.11
17100,0.21,0.97,-0.19,-7.57,-4.52,4.46
17120,0.21,0.98,-0.17,-10.31,-6.29,4.52
17140,0.20,1.01,-0.15,-13.55,-8.30,5.55
17160,0.23,0.99,-0.16,-13.85,-7.87,7.75
17180,0.22,1.00,-0.14,-13.98,-8.97,8.61
17200,0.22,1.00,-0.17,-13.49,-8.54,9.28
17220,0.23,1.01,-0.19,-15.50,-12.08,9.89
17240,0.25,1.02,-0.17,-17.15,-14.22,10.19
17260,0.28,0.97,-0.15,-18.07,-15.81,10.19
17280,0.24,1.01,-0.25,-15.93,-19.96,11.84
17300,0.25,1.03,-0.10,-18.98,-18.68,10.38
17320,0.25,1.04,-0.04,-20.75,-17.82,13.43
17340,0.27,1.01,-0.03,-20.51,-14.89,17.64
17360,0.29,0.96,-0.05,-20.14,-10.31,19.53
17380,0.30,0.95,-0.07,-19.53,-9.28,18.25
17400,0.31,0.95,-0.05,-18.80,-9.83,16.60
17420,0.31,0.97,-0.01,-16.17,-10.31,15.01
17440,0.31,0.98,0.01,-14.28,-9.34,15.01
17460,0.31,1.00,0.03,-11.54,-7.32,15.75
17480,0.32,0.98,0.00,-8.36,-3.36,17.33
17500,0.34,0.97,-0.04,-9.03,-2.50,18.01
17520,0.35,0.95,-0.04,-10.25,-3.30,17.76
17540,0.35,0.97,-0.01,-11.54,-3.97,17.21
17560,0.35,0.97,0.02,-11.29,-3.97,18.25
17580,0.36,0.99,0.03,-10.07,-3.23,19.78
17600,0.37,0.96,0.05,-7.45,-0.98,21.67
17620,0.43,0.86,0.08,-3.54,1.10,18.31
17640,0.45,0.84,0.07,2.99,2.56,12.02
17660,0.48,0.68,0.12,11.60,5.19,-2.32
17680,0.35,0.99,-0.01,13.92,6.41,-12.63
17700,0.31,1.14,-0.09,12.51,3.97,-6.35
17720,0.35,1.09,-0.10,6.59,2.08,8.00
17740,0.38,0.99,-0.08,0.37,2.32,12.27
17760,0.39,0.93,-0.06,-3.30,1.46,14.65
17780,0.41,0.90,-0.02,-5.55,0.55,14.65
17800,0.39,0.97,-0.02,-7.02,0.06,13.61
17820,0.42,0.93,0.01,-6.59,-0.61,15.93
17840,0.43,0.91,0.03,-5.25,0.49,15.32
17860,0.47,0.86,0.04,-1.65,1.65,11.41
17880,0.50,0.72,0.05,1.95,3.36,5.37
17900,0.49,0.68,0.09,6.90,4.09,-5.37
17920,0.38,1.01,-0.05,11.35,4.33,-18.80
17940,0.40,1.01,-0.08,9.95,0.92,-13.12
17960,0.40,1.00,-0.10,6.77,1.77,-9.03
17980,0.42,0.92,-0.04,2.99,2.50,-5.80
18000,0.47,0.80,0.07,4.76,1.40,-7.93
18020,0.35,1.02,-0.06,6.53,5.37,-13.12
18040,0.37,1.08,-0.09,3.54,1.95,-2.01
18060,0.39,1.01,-0.09,-1.46,-1.22,4.39
18080,0.38,1.00,-0.07,-5.80,0.37,8.42
18100,0.42,0.93,-0.04,-7.39,-0.06,10.74
18120,0.42,0.94,-0.03,-6.53,-1.10,9.95
18140,0.41,0.95,-0.03,-7.14,-1.10,10.50
18160,0.41,0.95,-0.03,-8.06,-0.79,11.41
18180,0.41,0.98,-0.04,-9.89,-0.98,14.71
18200,0.44,0.92,-0.05,-11.05,-0.61,16.85
18220,0.47,0.85,-0.03,-12.33,-0.55,15.81
18240,0.52,0.70,0.04,-11.23,-0.61,7.39
18260,0.55,0.64,0.13,-5.74,-0.73,-4.94
18280,0.46,0.88,0.09,0.31,1.46,-19.41
18300,0.41,1.02,-0.02,5.19,0.85,-15.50
18320,0.43,0.95,-0.06,4.82,1.59,-11.17
18340,0.45,0.91,-0.02,4.21,1.83,-10.80
18360,0.63,0.51,0.10,9.95,4.52,-21.00
18380,0.70,-0.19,0.53,27.83,7.63,-52.86
18400,0.07,1.34,-0.21,39.61,35.95,-92.77
18420,0.16,1.38,-0.10,37.96,5.74,-40.34
18440,0.27,1.16,-0.21,31.19,13.18,-21.79
18460,0.36,0.96,-0.26,22.46,15.26,-16.17
18480,0.40,0.62,-0.01,13.98,15.14,-26.06
18500,0.16,1.32,-0.22,10.56,9.34,-22.58
18520,0.27,1.15,-0.23,3.48,-0.37,-1.34
18540,0.35,0.96,-0.21,-1.59,-2.69,2.75
18560,0.35,0.87,-0.07,-6.53,-1.46,0.12
18580,0.37,0.83,0.03,-4.15,-0.43,-6.90
18600,0.35,0.86,-0.00,2.56,3.30,-14.40
18620,0.29,1.02,-0.13,7.32,4.33,-16.42
18640,0.29,1.02,-0.11,7.26,4.39,-13.73
18660,0.30,0.99,-0.11,9.34,5.68,-11.90
18680,0.33,0.90,-0.13,10.80,9.09,-12.02
18700,0.49,0.61,-0.09,9.64,13.24,-21.06
18720,0.43,0.78,-0.23,10.38,31.68,-47.79
18740,-0.17,1.59,-0.04,-1.40,6.16,-29.60
18760,0.28,1.07,-0.03,-2.08,-9.40,6.47
18780,0.30,0.89,-0.19,1.77,-0.98,6.84
18800,0.29,0.91,-0.14,2.01,2.26,-0.79
18820,0.28,0.92,-0.15,2.14,3.54,-6.23
18840,0.29,0.94,-0.16,2.69,4.76,-11.05
18860,0.36,0.89,-0.24,6.84,15.87,-22.22
18880,0.12,1.06,-0.18,10.44,20.69,-29.97
18900,0.03,1.14,-0.05,9.09,8.36,-19.04
18920,0.22,0.99,-0.17,3.23,0.61,-2.87
18940,0.22,0.98,-0.17,1.40,2.99,-4.64
18960,0.22,0.98,-0.17,2.99,4.52,-5.07
18980,0.22,0.98,-0.17,3.23,4.21,-6.23
19000,0.22,0.98,-0.18,3.36,4.46,-6.96
19020,0.20,0.98,-0.18,2.50,4.82,-7.75
19040,0.18,0.99,-0.17,1.83,4.58,-7.81
19060,0.19,0.99,-0.17,0.85,3.05,-5.37
19080,0.19,0.98,-0.17,0.61,2.69,-4.03
19100,0.19,0.99,-0.17,0.92,2.20,-3.78
19120,0.19,0.99,-0.18,2.69,2.14,-2.75
19140,0.19,0.98,-0.18,2.93,2.14,-2.32
19160,0.19,0.98,-0.18,2.01,1.89,-2.14
19180,0.19,0.98,-0.18,1.46,1.46,-2.32
19200,0.19,0.98,-0.18,0.79,1.10,-2.08
19220,0.19,0.98,-0.19,1.22,0.98,-1.53
19240,0.19,0.98,-0.19,0.73,0.98,-1.83
19260,0.19,0.98,-0.19,-0.49,0.92,-1.65
19280,0.19,0.98,-0.19,-1.40,0.79,-1.83
19300,0.19,0.98,-0.19,-2.81,0.85,-1.34
19320,0.18,0.98,-0.18,-3.42,0.06,-0.18
19340,0.16,0.99,-0.18,-3.97,-0.98,1.71
19360,0.20,0.98,-0.17,-5.07,-1.83,2.62
19380,0.17,0.99,-0.18,-4.88,-2.14,2.75
19400,0.14,1.01,-0.16,-6.04,-3.66,5.86
19420,0.18,1.00,-0.16,-8.61,-7.51,10.74
19440,0.21,0.99,-0.17,-12.15,-10.31,14.10
19460,0.21,1.00,-0.17,-14.40,-10.50,14.40
19480,0.23,0.99,-0.16,-15.63,-10.80,14.71
19500,0.22,1.00,-0.17,-13.98,-9.34,14.59
19520,0.23,1.01,-0.18,-13.06,-9.40,15.08
19540,0.25,0.99,-0.15,-12.15,-9.52,14.65
19560,0.26,0.99,-0.15,-11.78,-9.40,14.16
19580,0.25,1.04,-0.15,-12.15,-8.36,14.16
19600,0.27,1.01,-0.14,-10.93,-8.61,16.42
19620,0.29,0.96,-0.15,-11.47,-6.04,18.01
19640,0.30,0.94,-0.11,-11.66,-5.37,16.05
19660,0.31,0.92,-0.06,-10.31,-4.70,13.55
19680,0.32,0.91,-0.05,-5.25,-1.71,8.06
19700,0.39,0.72,0.01,-1.10,1.65,1.40
19720,0.34,0.77,0.02,5.07,7.51,-12.94
19740,0.21,1.14,-0.12,11.72,8.67,-14.89
19760,0.23,1.13,-0.22,9.03,4.94,-0.37
19780,0.26,1.04,-0.20,4.09,2.26,6.47
19800,0.28,1.00,-0.17,-1.10,0.98,10.99
19820,0.30,0.93,-0.14,-6.23,-0.49,9.83
19840,0.28,0.99,-0.13,-7.14,-1.89,8.42
19860,0.28,1.03,-0.13,-7.57,-3.23,10.50
19880,0.30,0.98,-0.11,-8.12,-3.72,14.34
19900,0.30,0.98,-0.11,-8.18,-3.60,14.59
19920,0.31,0.98,-0.12,-8.67,-3.60,15.26
19940,0.33,0.95,-0.10,-9.16,-4.03,15.08
19960,0.35,0.92,-0.09,-8.91,-4.15,13.92
19980,0.37,0.88,-0.06,-8.12,-3.17,11.35
20000,0.38,0.84,-0.03,-5.86,-0.49,3.60
20020,0.33,0.97,-0.08,-4.09,0.92,-0.31
20040,0.32,1.05,-0.10,-3.36,-0.18,1.53
20060,0.33,1.02,-0.13,-5.37,-1.53,9.09
20080,0.35,0.97,-0.12,-8.42,-1.53,11.66
20100,0.37,0.92,-0.09,-10.38,-2.20,11.84
20120,0.41,0.83,-0.04,-9.58,-1.71,5.55
20140,0.43,0.73,0.08,-2.75,1.95,-5.31
20160,0.37,0.96,0.03,6.35,5.19,-15.81
20180,0.30,1.12,-0.06,13.61,5.43,-7.57
20200,0.32,1.03,-0.14,13.24,7.02,-0.24
20220,0.35,0.97,-0.15,9.95,5.80,2.26
20240,0.35,0.95,-0.16,5.07,4.76,2.44
20260,0.33,0.98,-0.14,0.18,1.77,1.89
20280,0.33,1.03,-0.12,-1.83,-0.73,3.48
20300,0.34,1.00,-0.10,-3.42,-1.40,8.18
20320,0.38,0.91,-0.08,-3.85,-0.61,9.46
20340,0.39,0.88,-0.09,-3.36,0.37,6.16
20360,0.41,0.81,-0.03,-1.71,0.73,1.46
20380,0.39,0.89,-0.03,2.32,2.99,-8.36
20400,0.33,1.02,-0.10,4.21,5.13,-9.70
20420,0.34,1.02,-0.13,4.21,3.78,-5.19
20440,0.36,0.95,-0.15,0.06,2.14,-0.92
20460,0.37,0.91,-0.13,-2.69,1.22,-1.04
20480,0.37,0.87,-0.10,-4.21,0.43,-2.93
20500,0.32,1.03,-0.11,-5.49,-0.61,-3.97
20520,0.33,1.03,-0.11,-6.29,-1.34,1.22
20540,0.35,1.00,-0.10,-7.39,-1.95,4.21
20560,0.36,0.95,-0.09,-8.18,-1.65,6.41
20580,0.40,0.81,-0.04,-6.59,-1.10,3.36
20600,0.37,0.90,-0.07,-6.10,0.61,-2.50
20620,0.35,0.99,-0.08,-3.85,0.00,-2.87
20640,0.33,1.06,-0.12,-5.13,-2.14,2.75
20660,0.34,1.02,-0.13,-8.06,-1.95,8.00
20680,0.37,0.96,-0.10,-10.19,-3.11,11.11
20700,0.42,0.86,-0.03,-10.38,-3.30,9.58
20720,0.46,0.73,0.05,-6.84,-1.95,2.93
20740,0.42,0.78,0.05,0.12,2.14,-8.48
20760,0.31,1.10,-0.09,6.41,4.70,-13.37
20780,0.35,1.03,-0.12,6.71,2.38,-5.00
20800,0.36,0.98,-0.14,4.15,2.14,-1.40
20820,0.38,0.91,-0.06,0.31,0.79,-0.06
20840,0.39,0.89,-0.04,1.40,1.46,-3.05
20860,0.42,0.82,-0.03,3.66,2.44,-7.51
20880,0.37,0.88,-0.05,6.53,5.31,-18.25
20900,0.32,1.01,-0.10,7.57,5.62,-20.32
20920,0.33,1.02,-0.10,7.26,3.97,-16.72
20940,0.34,0.99,-0.09,6.90,4.09,-12.82
20960,0.38,0.81,-0.01,8.36,6.35,-15.69
20980,0.31,0.95,-0.07,11.78,10.99,-22.09
21000,0.29,1.06,-0.09,15.14,9.58,-17.21
21020,0.31,0.99,-0.14,15.56,8.24,-11.05
21040,0.34,0.90,-0.16,14.28,9.89,-10.56
21060,0.38,0.75,-0.12,11.66,10.99,-21.73
21080,0.20,1.09,-0.31,7.81,20.94,-33.51
21100,0.13,1.29,-0.25,1.59,8.12,-23.99
21120,0.21,1.14,-0.13,-2.38,-0.31,-6.65
21140,0.29,0.96,-0.14,0.92,0.55,2.20
21160,0.31,0.91,-0.14,1.59,1.28,1.59
21180,0.34,0.86,-0.11,3.23,2.75,-2.56
21200,0.51,0.62,-0.12,7.02,13.37,-20.87
21220,0.49,0.63,-0.39,8.24,35.16,-48.52
21240,-0.16,1.44,-0.17,5.62,42.91,-65.67
21260,0.14,1.07,-0.09,6.90,-1.77,-9.40
21280,0.27,0.92,-0.25,5.86,8.73,-1.16
21300,0.22,0.97,-0.18,0.24,9.52,-6.41
21320,0.19,0.97,-0.18,0.12,7.81,-8.30
21340,0.21,0.99,-0.15,1.34,5.80,-8.91
21360,0.19,1.00,-0.15,3.48,4.58,-9.09
21380,0.19,0.99,-0.17,3.30,4.33,-5.68
21400,0.19,0.99,-0.16,3.36,2.81,-4.64
21420,0.19,0.98,-0.18,3.54,1.65,-3.23
21440,0.20,0.98,-0.19,2.75,1.10,-2.69
21460,0.20,0.98,-0.19,1.65,1.40,-3.05
21480,0.19,0.98,-0.19,0.85,1.40,-2.99
21500,0.19,0.98,-0.19,0.49,1.46,-2.56
21520,0.19,0.98,-0.19,-0.18,1.16,-2.62
21540,0.19,0.98,-0.19,-0.55,1.16,-2.56
21560,0.19,0.98,-0.19,-0.79,1.34,-2.62
21580,0.19,0.99,-0.18,-0.61,1.40,-2.56
21600,0.19,0.98,-0.19,-0.12,1.16,-2.08
21620,0.19,0.98,-0.18,-0.18,1.16,-1.53
21640,0.19,0.98,-0.18,0.00,1.04,-1.28
21660,0.19,0.98,-0.19,0.12,0.85,-1.16
21680,0.19,0.98,-0.19,0.43,0.79,-0.73
21700,0.19,0.98,-0.19,0.18,0.67,-0.55
21720,0.19,0.98,-0.19,-0.12,0.43,-0.61
21740,0.18,0.98,-0.19,-0.43,0.37,-0.06
21760,0.18,0.99,-0.19,-0.67,-0.49,1.59
21780,0.18,0.99,-0.18,-1.77,-1.71,2.81
21800,0.16,1.00,-0.17,-2.50,-2.56,4.76
21820,0.19,0.99,-0.18,-5.80,-5.92,8.91
21840,0.19,0.99,-0.18,-6.65,-6.10,9.34
21860,0.18,1.01,-0.19,-8.12,-6.84,10.74
21880,0.20,1.01,-0.17,-9.77,-10.50,15.87
21900,0.23,0.99,-0.19,-11.47,-8.85,17.09
21920,0.23,0.98,-0.22,-11.11,-8.12,16.11
21940,0.25,0.96,-0.19,-11.84,-9.09,14.28
21960,0.24,1.00,-0.15,-11.78,-9.77,13.37
21980,0.26,1.01,-0.13,-9.95,-8.91,14.22
22000,0.26,1.00,-0.14,-6.71,-6.47,15.32
22020,0.29,0.93,-0.16,-4.03,-3.60,14.89
22040,0.29,0.93,-0.14,-4.15,-2.62,11.66
22060,0.28,0.97,-0.11,-2.87,-2.32,9.28
22080,0.25,1.04,-0.14,-0.98,-1.83,11.05
22100,0.27,1.03,-0.16,-2.01,-2.14,15.56
22120,0.28,1.00,-0.19,-3.60,-2.38,18.37
22140,0.29,0.99,-0.17,-6.96,-4.27,20.39
22160,0.30,0.98,-0.15,-8.54,-5.62,21.97
22180,0.32,0.97,-0.14,-9.58,-6.65,23.13
22200,0.34,0.92,-0.11,-9.83,-5.62,21.91
22220,0.36,0.90,-0.09,-8.73,-4.88,18.86
22240,0.35,0.94,-0.10,-7.75,-4.15,16.48
22260,0.35,0.95,-0.09,-6.41,-4.27,15.63
22280,0.37,0.93,-0.11,-5.62,-3.30,15.01
22300,0.38,0.91,-0.11,-5.98,-2.50,13.12
22320,0.40,0.86,-0.09,-5.98,-2.26,8.12
22340,0.45,0.66,0.01,-3.54,-0.24,1.40
22360,0.43,0.73,0.02,2.50,4.33,-13.06
22380,0.31,1.07,-0.11,7.57,6.41,-21.30
22400,0.28,1.18,-0.21,6.16,3.36,-4.15
22420,0.32,1.08,-0.23,0.61,0.85,6.29
22440,0.34,1.01,-0.21,-5.31,-0.67,13.06
22460,0.38,0.91,-0.13,-12.76,-3.85,16.54
22480,0.41,0.85,-0.05,-13.00,-4.64,13.73
22500,0.39,0.92,-0.05,-10.01,-3.85,9.40
22520,0.39,0.95,-0.06,-6.16,-2.32,8.00
22540,0.39,0.95,-0.09,-4.82,-1.59,7.57
22560,0.39,0.96,-0.11,-5.31,-0.85,7.81
22580,0.39,0.97,-0.10,-6.65,-1.89,9.22
22600,0.40,0.95,-0.09,-7.57,-2.38,10.74
22620,0.40,0.94,-0.09,-8.24,-2.08,11.23
22640,0.41,0.93,-0.08,-8.48,-2.50,11.90
22660,0.42,0.92,-0.07,-9.16,-2.32,11.23
22680,0.43,0.91,-0.05,-8.61,-2.20,10.86
22700,0.44,0.91,-0.05,-7.93,-1.46,9.52
22720,0.47,0.85,-0.04,-5.43,-0.73,7.26
22740,0.49,0.77,-0.01,-3.97,0.67,2.32
22760,0.54,0.61,0.06,0.98,1.53,-23.68
22780,0.41,0.95,-0.03,9.70,4.64,-28.63
22800,0.35,1.09,-0.10,11.17,3.85,-24.60
22820,0.37,1.05,-0.18,7.87,3.60,-15.32
22840,0.39,0.98,-0.15,0.00,1.83,-8.12
22860,0.41,0.92,-0.08,-3.97,1.22,-6.71
22880,0.40,0.92,-0.04,-3.72,0.98,-8.12
22900,0.36,1.04,-0.10,-3.23,-0.18,-3.23
22920,0.39,0.98,-0.12,-4.70,-0.24,1.95
22940,0.40,0.93,-0.09,-6.77,-0.98,2.69
22960,0.42,0.89,-0.02,-6.59,-0.98,2.08
22980,0.43,0.88,-0.00,-2.62,-0.31,-1.10
23000,0.37,1.00,-0.07,-0.79,1.16,-2.99
23020,0.39,0.99,-0.12,-1.28,0.73,1.95
23040,0.40,0.96,-0.08,-2.69,-0.92,3.36
23060,0.40,0.94,-0.07,-4.03,-0.43,4.70
23080,0.42,0.90,-0.05,-3.85,-0.12,3.91
23100,0.40,0.96,-0.07,-3.17,0.49,2.26
23120,0.39,1.00,-0.07,-3.85,-0.43,3.78
23140,0.40,0.97,-0.08,-4.94,-0.31,7.08
23160,0.44,0.90,-0.06,-6.96,-0.18,6.90
23180,0.46,0.82,-0.02,-6.53,0.24,3.48
23200,0.48,0.74,0.03,-2.50,0.73,-3.36
23220,0.46,0.79,0.03,4.52,2.14,-16.48
23240,0.38,0.97,-0.07,8.18,4.76,-22.71
23260,0.38,1.02,-0.07,9.28,2.08,-19.90
23280,0.38,1.00,-0.11,6.35,2.99,-12.27
23300,0.40,0.92,-0.09,4.76,4.03,-9.95
23320,0.51,0.70,-0.00,5.68,4.64,-14.40
23340,0.48,0.66,0.09,22.34,15.50,-48.95
23360,0.18,1.35,-0.16,25.76,17.40,-57.92
23380,0.21,1.35,-0.22,21.06,9.28,-31.19
23400,0.30,1.14,-0.25,11.66,6.04,-10.44
23420,0.30,1.03,-0.24,5.31,7.14,-3.54
23440,0.37,0.86,-0.14,-0.37,2.87,-1.16
23460,0.45,0.57,0.03,2.38,6.71,-20.08
23480,0.22,1.06,-0.16,5.43,11.84,-31.56
23500,0.27,1.10,-0.13,7.32,4.09,-24.05
23520,0.29,1.01,-0.17,8.06,6.47,-17.40
23540,0.29,0.99,-0.15,9.22,10.13,-16.30
23560,0.37,0.86,-0.17,8.24,12.45,-17.27
23580,0.53,0.56,-0.15,7.26,19.71,-46.75
23600,-0.11,1.50,-0.24,1.40,30.09,-54.08
23620,0.06,1.35,0.14,1.22,-8.06,-12.15
23640,0.33,0.87,-0.22,9.03,0.31,6.90
23660,0.23,0.97,-0.16,-1.40,4.03,-3.85
23680,0.26,0.95,-0.16,-1.77,3.36,-3.60
23700,0.31,0.91,-0.19,-0.18,5.19,-8.79
23720,0.21,1.01,-0.22,5.31,15.01,-21.42
23740,0.08,1.08,-0.11,5.43,9.34,-18.74
23760,0.19,1.01,-0.13,3.23,4.58,-6.47
23780,0.22,0.98,-0.17,1.22,1.77,-3.85
23800,0.22,0.97,-0.18,1.40,2.75,-3.91
23820,0.22,0.98,-0.18,1.53,2.32,-5.19
23840,0.21,0.98,-0.17,2.14,2.50,-6.53
23860,0.20,0.98,-0.19,2.38,3.91,-7.02
23880,0.19,0.98,-0.18,1.71,3.48,-6.65
23900,0.19,0.99,-0.18,0.61,2.26,-5.13
23920,0.19,0.98,-0.18,0.12,1.83,-4.39
23940,0.19,0.98,-0.18,-0.24,1.71,-3.72
23960,0.19,0.98,-0.18,-0.06,1.28,-3.54
23980,0.19,0.99,-0.18,-0.18,1.34,-3.23
24000,0.19,0.99,-0.18,0.00,1.34,-2.75
24020,0.19,0.99,-0.18,0.49,1.10,-2.26
24040,0.19,0.98,-0.18,0.67,1.10,-1.59
24060,0.19,0.98,-0.19,0.49,1.04,-1.65
24080,0.19,0.98,-0.19,0.12,0.79,-1.46
24100,0.19,0.98,-0.18,-0.98,0.67,-1.04
24120,0.18,0.98,-0.18,-0.67,0.43,-0.43
24140,0.19,0.98,-0.19,-1.28,0.43,0.00
24160,0.18,0.98,-0.19,-1.34,0.61,0.31
24180,0.18,0.98,-0.18,-1.83,0.06,1.04
24200,0.18,0.99,-0.18,-1.83,-0.67,2.08
24220,0.17,0.99,-0.18,-2.50,-1.10,2.69
24240,0.18,0.99,-0.18,-3.91,-3.05,5.31
24260,0.18,0.99,-0.18,-5.25,-4.15,7.02
24280,0.17,1.00,-0.17,-8.42,-8.24,11.60
24300,0.20,1.00,-0.17,-10.01,-9.52,13.98
24320,0.21,1.00,-0.17,-12.51,-9.52,14.53
24340,0.23,0.98,-0.18,-11.78,-8.42,13.92
24360,0.23,1.00,-0.17,-10.99,-7.57,13.67
24380,0.20,1.04,-0.18,-11.47,-8.00,15.08
24400,0.22,1.03,-0.16,-11.60,-10.13,19.04
24420,0.26,1.05,-0.18,-11.05,-10.62,21.30
24440,0.28,1.02,-0.17,-9.70,-10.99,24.90
24460,0.30,0.99,-0.17,-9.46,-9.03,27.34
24480,0.30,1.00,-0.16,-11.90,-10.07,29.85
24500,0.31,0.95,-0.13,-13.55,-8.06,29.91
24520,0.34,0.88,-0.08,-13.18,-8.54,27.16
24540,0.37,0.83,-0.05,-9.77,-4.58,18.49
24560,0.38,0.82,-0.05,-6.90,-2.44,11.54
24580,0.37,0.86,-0.06,-4.94,-1.28,4.46
24600,0.32,0.99,-0.10,-2.44,1.16,-0.24
24620,0.30,1.05,-0.12,-2.14,0.37,2.08
24640,0.29,1.08,-0.17,-4.46,-0.12,7.14
24660,0.33,1.00,-0.15,-10.44,-2.08,15.44
24680,0.33,0.99,-0.16,-14.71,-2.44,17.09
24700,0.34,0.99,-0.13,-17.94,-4.64,19.17
24720,0.36,0.97,-0.06,-19.17,-6.77,21.73
24740,0.38,0.92,-0.02,-17.40,-6.16,22.40
24760,0.39,0.92,-0.01,-13.85,-4.15,21.61
24780,0.40,0.92,-0.02,-9.28,-1.65,19.04
24800,0.41,0.91,-0.05,-8.36,-1.28,17.52
24820,0.41,0.93,-0.06,-8.12,-0.85,15.93
24840,0.42,0.92,-0.05,-8.48,-1.10,15.44
24860,0.43,0.89,-0.03,-8.30,-0.55,13.37
24880,0.43,0.91,-0.02,-7.57,0.06,11.29
24900,0.43,0.92,-0.02,-7.26,0.06,10.93
24920,0.46,0.87,-0.03,-6.53,0.61,9.34
24940,0.50,0.77,0.00,-5.55,0.98,5.00
24960,0.54,0.65,0.05,-1.77,1.53,-3.85
24980,0.44,0.90,0.02,6.90,2.75,-24.96
25000,0.35,1.09,-0.06,9.64,2.38,-23.74
25020,0.38,1.06,-0.12,8.06,1.65,-13.85
25040,0.41,0.97,-0.13,1.46,1.04,-5.92
25060,0.45,0.86,-0.04,-2.38,0.43,-5.55
25080,0.46,0.79,0.06,-0.31,0.55,-11.29
25100,0.37,1.10,-0.04,3.72,0.06,-10.74
25120,0.35,1.09,-0.12,1.83,1.89,-0.43
25140,0.39,1.00,-0.11,-1.34,-0.55,5.49
25160,0.39,0.96,-0.11,-7.32,-1.34,8.85
25180,0.45,0.83,-0.00,-7.57,-1.16,6.90
25200,0.47,0.78,0.05,-3.42,-0.79,0.92
25220,0.47,0.74,0.08,2.81,2.14,-13.43
25240,0.39,0.99,-0.03,10.44,3.66,-17.03
25260,0.37,1.03,-0.08,11.66,4.88,-12.82
25280,0.38,1.00,-0.09,11.29,4.09,-8.06
25300,0.42,0.89,-0.08,9.40,5.19,-5.92
25320,0.45,0.70,-0.03,8.91,5.55,-11.17
25340,0.45,0.71,-0.03,10.31,6.71,-24.11
25360,0.29,1.20,-0.12,7.14,1.71,-24.41
25380,0.29,1.15,-0.14,3.30,1.95,-9.64
25400,0.35,1.02,-0.13,1.28,0.49,-1.46
25420,0.41,0.86,-0.09,-2.26,1.59,0.06
25440,0.48,0.58,0.04,-1.71,2.87,-8.48
25460,0.40,0.81,0.03,6.47,7.57,-23.62
25480,0.30,1.12,-0.09,12.70,4.15,-21.85
25500,0.30,1.05,-0.18,11.84,8.30,-13.73
25520,0.34,0.99,-0.13,10.01,6.04,-11.29
25540,0.37,0.80,-0.07,8.06,8.12,-14.40
25560,0.46,0.34,0.19,13.12,13.61,-29.72
25580,0.18,1.09,-0.19,22.09,30.27,-49.26
25600,0.16,1.33,-0.33,17.15,20.02,-29.30
25620,0.22,1.13,-0.26,4.15,5.68,-16.30
25640,0.23,1.07,-0.14,-0.37,2.14,-8.97
25660,0.28,0.96,-0.12,0.49,1.59,-3.42
25680,0.49,0.61,-0.14,0.85,9.46,-15.75
25700,0.37,0.73,-0.33,1.22,28.26,-41.81
25720,-0.13,1.51,-0.18,-5.07,23.38,-46.33
25740,0.25,1.04,-0.06,5.68,-2.93,0.67
25760,0.26,0.94,-0.22,5.98,2.32,1.34
25780,0.24,0.98,-0.14,1.95,2.99,-1.71
25800,0.30,0.91,-0.20,2.75,6.53,-4.64
25820,0.31,0.91,-0.21,2.93,10.31,-12.63
25840,0.20,1.03,-0.19,4.46,14.04,-19.47
25860,0.14,1.05,-0.11,5.49,6.59,-11.66
25880,0.19,0.99,-0.18,3.36,3.60,-4.70
25900,0.22,0.98,-0.17,1.53,4.33,-3.60
25920,0.22,0.98,-0.18,1.53,3.30,-5.31
25940,0.21,0.98,-0.18,1.59,3.91,-6.10
25960,0.20,0.98,-0.18,1.53,3.78,-6.23
25980,0.19,0.98,-0.18,0.43,2.32,-6.29
26000,0.19,0.99,-0.18,-0.24,2.01,-5.49
26020,0.19,0.98,-0.18,-0.85,1.89,-4.58
26040,0.19,0.98,-0.18,-1.53,1.40,-3.85
26060,0.19,0.98,-0.18,-1.16,1.46,-3.97
26080,0.19,0.98,-0.18,-1.16,1.28,-3.66
26100,0.19,0.99,-0.18,-1.04,1.34,-2.99
26120,0.19,0.99,-0.17,-0.67,0.98,-2.50
26140,0.19,0.98,-0.18,-0.18,0.85,-1.71
26160,0.19,0.98,-0.18,-0.37,0.73,-1.53
26180,0.19,0.98,-0.18,-0.37,0.67,-1.22
26200,0.18,0.99,-0.17,0.06,0.31,-0.37
26220,0.19,0.98,-0.18,0.00,0.12,0.06
26240,0.19,0.98,-0.18,-0.61,-0.31,0.61
26260,0.17,0.99,-0.17,-0.43,-0.85,1.59
26280,0.18,0.98,-0.19,-1.40,-1.77,2.75
26300,0.16,1.00,-0.17,-4.33,-3.78,4.76
26320,0.20,0.99,-0.18,-5.55,-6.04,7.14
26340,0.18,1.00,-0.17,-6.41,-5.68,7.93
26360,0.21,0.99,-0.18,-8.67,-8.00,9.95
26380,0.20,1.01,-0.17,-9.70,-8.30,10.31
26400,0.22,0.99,-0.17,-10.50,-8.73,11.54
26420,0.23,0.99,-0.17,-11.29,-7.14,11.17
26440,0.25,0.96,-0.17,-11.05,-5.68,9.09
26460,0.23,0.99,-0.16,-10.74,-5.25,7.14
26480,0.24,0.99,-0.16,-10.99,-6.59,7.57
26500,0.25,1.00,-0.13,-11.23,-7.57,7.81
26520,0.24,1.00,-0.14,-10.44,-6.59,8.54
26540,0.25,0.98,-0.14,-10.38,-6.84,9.58
26560,0.26,0.98,-0.13,-10.07,-5.43,10.01
26580,0.25,1.02,-0.15,-10.19,-4.88,10.44
26600,0.25,1.05,-0.11,-9.89,-4.88,12.82
26620,0.28,0.99,-0.10,-8.18,-2.93,18.37
26640,0.30,0.94,-0.13,-8.24,-1.65,18.07
26660,0.29,0.96,-0.13,-9.16,-2.20,15.75
26680,0.28,1.02,-0.10,-9.28,-3.48,15.99
26700,0.29,1.02,-0.09,-9.16,-3.23,18.62
26720,0.31,0.98,-0.12,-9.40,-3.91,21.24
26740,0.32,0.97,-0.10,-9.89,-2.44,20.45
26760,0.34,0.96,-0.08,-9.83,-3.48,20.63
26780,0.33,0.97,-0.08,-9.77,-3.60,20.32
26800,0.35,0.96,-0.08,-8.91,-3.91,20.63
26820,0.36,0.95,-0.06,-8.30,-4.39,21.18
26840,0.36,0.94,-0.08,-8.30,-3.23,20.81
26860,0.37,0.94,-0.06,-8.30,-3.78,20.45
26880,0.38,0.96,-0.05,-8.30,-3.05,21.00
26900,0.38,0.95,-0.06,-7.69,-2.81,21.61
26920,0.39,0.94,-0.06,-7.87,-2.38,22.77
26940,0.43,0.88,-0.04,-8.67,-2.20,21.42
26960,0.44,0.85,-0.03,-8.48,-1.46,17.88
26980,0.45,0.84,-0.01,-7.69,-1.16,13.49
27000,0.50,0.73,0.02,-4.46,0.12,4.52
27020,0.51,0.66,0.04,-0.85,1.71,-6.29
27040,0.42,0.90,-0.02,1.83,4.21,-19.23
27060,0.37,1.07,-0.05,5.49,1.53,-14.53
27080,0.40,0.99,-0.08,4.82,1.65,-7.51
27100,0.42,0.91,-0.11,2.69,2.69,-5.43
27120,0.45,0.79,-0.05,-2.62,2.26,-10.19
27140,0.37,1.01,-0.06,-2.99,1.46,-16.97
27160,0.35,1.09,-0.01,-2.08,-1.77,-11.17
27180,0.38,0.94,-0.04,1.22,0.79,-1.59
27200,0.43,0.84,-0.04,2.44,2.81,-2.81
27220,0.43,0.82,-0.04,3.05,3.91,-8.91
27240,0.38,0.96,-0.06,4.33,1.40,-13.61
27260,0.37,1.00,-0.07,4.52,0.98,-10.80
27280,0.38,0.96,-0.05,4.46,1.10,-9.22
27300,0.40,0.88,-0.03,4.94,4.15,-11.41
27320,0.39,0.86,-0.06,5.62,4.58,-15.81
27340,0.37,0.92,-0.10,5.62,4.82,-18.62
27360,0.33,1.02,-0.12,3.97,2.93,-17.03
27380,0.33,1.05,-0.06,3.05,0.79,-12.08
27400,0.34,0.99,-0.05,4.58,2.32,-8.00
27420,0.38,0.90,-0.03,6.90,4.82,-7.69
27440,0.36,0.86,-0.07,11.54,9.34,-18.07
27460,0.25,1.16,-0.19,9.46,7.20,-18.98
27480,0.26,1.19,-0.20,4.15,1.89,-6.77
27500,0.31,1.04,-0.17,-3.54,-1.77,6.04
27520,0.34,0.95,-0.11,-7.02,-2.56,9.40
27540,0.37,0.87,-0.06,-8.18,-2.01,7.75
27560,0.39,0.80,0.01,-2.62,-0.18,-1.71
27580,0.36,0.88,-0.01,1.89,2.50,-10.31
27600,0.32,1.00,-0.08,5.19,4.09,-13.37
27620,0.31,1.01,-0.12,5.55,3.72,-9.46
27640,0.32,0.98,-0.14,3.42,3.17,-7.51
27660,0.32,0.97,-0.14,0.79,2.50,-6.96
27680,0.35,0.92,-0.10,-0.12,1.59,-9.09
27700,0.33,0.86,-0.04,2.08,4.39,-15.50
27720,0.29,1.00,-0.08,4.64,5.55,-18.31
27740,0.29,1.02,-0.10,5.68,5.55,-13.67
27760,0.31,0.97,-0.14,5.25,5.68,-12.57
27780,0.32,0.93,-0.12,4.70,5.98,-13.79
27800,0.43,0.73,-0.05,5.80,8.12,-20.08
27820,0.36,0.90,-0.18,13.98,33.08,-53.65
27840,-0.18,1.56,-0.46,13.49,38.09,-50.54
27860,0.06,1.31,0.00,1.40,-4.64,-11.60
27880,0.27,0.92,-0.21,4.03,1.71,4.33
27900,0.25,0.96,-0.14,0.85,2.44,1.22
27920,0.31,0.91,-0.12,2.26,2.75,-2.14
27940,0.35,0.86,-0.20,6.90,11.41,-15.38
27960,0.22,0.97,-0.21,11.84,20.20,-26.61
27980,-0.02,1.20,-0.02,13.61,11.84,-22.46
28000,0.25,0.96,-0.16,2.93,1.83,0.98
28020,0.21,0.98,-0.17,1.77,2.38,-1.65
28040,0.24,0.97,-0.16,2.81,3.17,-1.89
28060,0.24,0.96,-0.18,5.07,4.76,-5.74
28080,0.23,0.97,-0.18,5.07,6.53,-9.34
28100,0.20,0.99,-0.17,4.88,7.51,-10.93
28120,0.18,1.00,-0.16,3.60,5.68,-8.79
28140,0.18,0.99,-0.17,2.14,4.03,-6.47
28160,0.19,0.99,-0.17,1.10,2.81,-5.25
28180,0.19,0.98,-0.18,0.85,2.32,-4.39
28200,0.19,0.99,-0.18,0.06,2.56,-4.03
28220,0.18,0.99,-0.18,-0.06,2.14,-3.48
28240,0.18,0.99,-0.18,-0.31,1.89,-2.56
28260,0.19,0.98,-0.18,-0.12,1.71,-2.20
28280,0.19,0.98,-0.18,-0.06,1.59,-2.01
28300,0.19,0.98,-0.18,0.06,1.46,-1.83
28320,0.18,0.99,-0.17,-0.12,1.16,-1.28
28340,0.19,0.98,-0.18,-0.06,0.85,-0.73
28360,0.19,0.98,-0.19,-0.18,0.98,-0.79
28380,0.18,0.98,-0.18,-0.31,0.85,-0.92
28400,0.19,0.98,-0.18,-0.55,0.49,-0.37
28420,0.18,0.98,-0.18,-0.55,0.31,-0.12
28440,0.19,0.98,-0.18,-0.67,0.18,0.31
28460,0.19,0.99,-0.18,-1.46,-0.37,0.85
28480,0.18,0.99,-0.18,-1.04,-0.67,1.59
28500,0.19,0.98,-0.18,-1.65,-1.16,2.26
28520,0.19,0.99,-0.17,-2.44,-2.32,2.99
28540,0.18,0.99,-0.17,-2.69,-2.56,3.78
28560,0.19,0.99,-0.18,-4.15,-4.15,5.98
28580,0.19,0.99,-0.18,-6.47,-4.39,6.29
28600,0.21,0.98,-0.18,-7.63,-4.94,6.53
28620,0.20,0.99,-0.17,-7.51,-3.91,5.74
28640,0.21,0.98,-0.17,-8.36,-4.21,6.16
28660,0.22,0.99,-0.16,-8.91,-4.15,6.16
28680,0.22,0.99,-0.15,-8.97,-4.39,6.84
28700,0.21,1.01,-0.15,-7.87,-3.91,8.30
28720,0.23,0.99,-0.15,-5.80,-3.85,10.01
28740,0.23,0.99,-0.17,-5.55,-3.48,10.38
28760,0.22,1.01,-0.16,-7.32,-4.88,11.78
28780,0.23,1.02,-0.15,-8.48,-5.68,13.55
28800,0.22,1.05,-0.17,-10.01,-5.92,16.42
28820,0.27,0.99,-0.18,-10.74,-5.68,20.63
28840,0.28,0.97,-0.17,-12.76,-5.43,20.81
28860,0.29,0.96,-0.13,-14.04,-6.47,19.59
28880,0.29,0.96,-0.10,-13.55,-6.53,17.88
28900,0.31,0.95,-0.09,-12.15,-5.49,16.54
28920,0.32,0.92,-0.07,-10.01,-3.97,14.53
28940,0.32,0.92,-0.07,-6.23,-2.01,9.77
28960,0.31,0.97,-0.09,-4.82,-0.92,8.06
28980,0.30,1.01,-0.12,-4.58,-1.10,8.67
29000,0.30,1.01,-0.14,-6.47,-2.14,12.70
29020,0.32,0.97,-0.13,-9.46,-2.81,14.65
29040,0.33,0.96,-0.10,-11.05,-3.60,14.83
29060,0.34,0.95,-0.08,-11.11,-3.78,14.53
29080,0.36,0.93,-0.04,-8.54,-3.42,13.37
29100,0.36,0.94,-0.05,-6.47,-2.26,11.66
29120,0.36,0.94,-0.07,-5.25,-1.16,10.74
29140,0.35,0.98,-0.09,-5.92,-0.98,10.80
29160,0.36,0.98,-0.09,-7.32,-1.34,12.21
29180,0.35,0.99,-0.09,-8.61,-1.53,13.67
29200,0.37,0.95,-0.07,-10.19,-1.95,16.36
29220,0.38,0.95,-0.06,-10.74,-1.89,16.54
29240,0.39,0.92,-0.05,-10.50,-1.71,16.30
29260,0.40,0.91,-0.04,-10.80,-1.16,13.79
29280,0.41,0.93,-0.03,-10.07,-1.40,12.63
29300,0.40,0.95,-0.03,-8.67,-0.85,12.45
29320,0.41,0.96,-0.04,-7.75,-0.49,14.10
29340,0.41,0.95,-0.04,-7.63,0.06,15.20
29360,0.42,0.94,-0.04,-8.00,0.55,16.17
29380,0.44,0.91,-0.03,-7.57,0.43,16.05
29400,0.46,0.87,-0.01,-6.53,0.73,14.22
29420,0.48,0.82,0.01,-4.58,1.22,10.56
29440,0.50,0.77,0.04,-0.67,2.01,0.73
29460,0.51,0.69,0.06,6.41,3.30,-10.01
29480,0.49,0.77,0.02,11.35,3.48,-22.64
29500,0.36,1.08,-0.12,10.62,4.33,-28.44
29520,0.38,1.06,-0.11,5.62,0.55,-15.44
29540,0.41,0.98,-0.08,2.38,-0.06,-9.28
29560,0.47,0.82,-0.04,0.85,1.71,-9.52
29580,0.59,0.49,0.16,9.28,1.28,-30.27
29600,0.25,1.19,-0.15,12.15,11.84,-48.71
29620,0.30,1.21,-0.09,12.33,-0.98,-29.17
29640,0.34,1.07,-0.12,7.32,0.85,-10.62
29660,0.37,0.98,-0.11,4.15,4.21,-5.98
29680,0.41,0.77,-0.02,3.36,3.36,-7.32
29700,0.26,1.09,-0.14,5.92,5.25,-13.85
29720,0.34,1.05,-0.11,4.58,-0.85,-4.82
29740,0.34,1.00,-0.14,1.28,0.49,-0.43
29760,0.37,0.94,-0.10,-1.71,0.00,-0.24
29780,0.40,0.86,-0.02,-0.55,0.31,-4.03
29800,0.43,0.72,0.07,3.91,1.77,-11.05
29820,0.26,1.07,-0.12,9.95,4.33,-15.69
29840,0.28,1.12,-0.18,6.41,2.50,-5.80
29860,0.33,1.02,-0.17,1.46,-0.98,0.79
29880,0.35,0.96,-0.11,-2.44,-0.61,2.44
29900,0.39,0.84,-0.02,-1.16,0.06,-0.55
29920,0.38,0.83,-0.02,2.99,2.44,-6.84
29940,0.36,0.87,-0.07,4.70,4.21,-12.82
29960,0.30,1.07,-0.12,3.85,2.87,-14.16
29980,0.30,1.06,-0.09,2.38,2.50,-8.79
30000,0.32,1.00,-0.10,2.44,3.11,-4.76
30020,0.37,0.89,-0.12,2.81,4.15,-4.27
30040,0.41,0.68,-0.03,3.05,5.25,-11.23
30060,0.36,0.77,0.01,7.75,10.01,-25.39
30080,0.23,1.17,-0.11,12.33,9.77,-26.86
30100,0.27,1.08,-0.18,11.60,10.01,-16.30
30120,0.28,1.02,-0.20,9.16,9.03,-13.00
30140,0.31,0.89,-0.13,6.41,8.06,-13.00
30160,0.46,0.64,-0.07,7.08,12.33,-23.07
30180,0.34,1.01,-0.24,8.42,27.34,-42.79
30200,-0.05,1.37,-0.29,-1.53,1.83,-21.36
30220,0.25,1.04,-0.06,0.37,-3.17,-1.34
30240,0.27,0.93,-0.17,3.54,2.50,0.37
30260,0.27,0.94,-0.16,1.65,4.09,-4.64
30280,0.33,0.87,-0.18,1.71,7.20,-9.95
30300,0.31,0.90,-0.21,3.85,12.76,-20.26
30320,0.07,1.14,-0.08,10.56,15.38,-24.60
30340,0.20,1.01,-0.14,7.20,1.40,-2.26
30360,0.23,0.96,-0.19,4.94,3.11,-0.55
30380,0.23,0.98,-0.17,3.66,3.85,-2.01
30400,0.24,0.96,-0.19,3.48,4.39,-3.66
30420,0.25,0.97,-0.19,3.36,5.49,-7.08
30440,0.23,0.97,-0.19,3.66,7.69,-10.44
30460,0.17,1.00,-0.17,2.56,8.00,-11.47
30480,0.18,1.00,-0.17,1.89,5.68,-8.97
30500,0.19,0.99,-0.18,1.53,3.78,-7.14
30520,0.19,0.98,-0.18,0.67,3.23,-5.86
30540,0.19,0.98,-0.18,-0.18,2.26,-5.55
30560,0.18,0.99,-0.17,0.12,1.95,-5.07
30580,0.18,0.99,-0.18,0.18,1.59,-3.54
30600,0.18,0.99,-0.18,-0.24,1.46,-2.75
30620,0.19,0.99,-0.18,0.00,1.28,-2.08
30640,0.19,0.98,-0.18,0.00,1.04,-1.46
30660,0.19,0.98,-0.18,0.12,0.92,-1.34
30680,0.19,0.98,-0.19,-0.37,0.85,-1.22
30700,0.19,0.98,-0.18,-0.37,1.04,-1.16
30720,0.19,0.98,-0.19,-0.67,0.79,-1.28
30740,0.19,0.98,-0.19,-0.92,0.79,-1.28
30760,0.19,0.98,-0.19,-0.85,0.67,-1.53
30780,0.19,0.98,-0.18,-0.79,0.79,-1.65
30800,0.18,0.98,-0.18,-0.67,0.85,-1.53
30820,0.18,0.98,-0.18,-0.31,0.55,-1.10
30840,0.18,0.98,-0.19,-0.43,-0.43,0.67
30860,0.19,0.98,-0.19,-0.98,-0.98,1.34
30880,0.18,0.98,-0.19,-1.16,-1.04,1.04
30900,0.18,0.99,-0.18,-2.38,-1.46,1.89
30920,0.18,0.98,-0.19,-2.56,-1.53,2.26
30940,0.17,0.99,-0.17,-3.54,-2.38,2.81
30960,0.19,0.98,-0.19,-4.15,-3.54,5.07
30980,0.18,0.99,-0.18,-4.82,-3.60,5.37
31000,0.19,0.99,-0.17,-6.41,-5.31,7.63
31020,0.20,0.99,-0.17,-7.93,-5.74,9.16
31040,0.20,1.00,-0.18,-9.89,-6.16,9.40
31060,0.22,0.99,-0.16,-11.41,-7.02,10.38
31080,0.23,0.99,-0.16,-11.72,-6.10,10.68
31100,0.23,0.99,-0.16,-11.35,-6.53,11.29
31120,0.23,1.00,-0.16,-11.35,-7.14,11.78
31140,0.24,1.00,-0.16,-11.84,-8.30,12.51
31160,0.24,1.00,-0.16,-10.31,-8.06,12.82
31180,0.25,1.04,-0.14,-10.07,-8.67,13.85
31200,0.26,1.00,-0.13,-8.42,-7.75,15.81
31220,0.27,0.99,-0.16,-8.73,-5.55,16.97
31240,0.28,0.98,-0.17,-10.19,-5.86,17.52
31260,0.28,0.97,-0.12,-11.84,-6.65,17.46
31280,0.28,1.00,-0.11,-11.66,-5.80,17.94
31300,0.29,0.99,-0.13,-12.27,-6.16,19.78
31320,0.31,0.96,-0.13,-13.79,-5.80,20.63
31340,0.31,0.98,-0.10,-15.99,-6.16,20.45
31360,0.33,0.94,-0.07,-16.48,-6.35,20.94
31380,0.35,0.92,-0.06,-15.50,-5.13,18.92
31400,0.36,0.90,-0.04,-12.57,-3.72,14.77
31420,0.38,0.88,-0.03,-10.93,-2.87,10.74
31440,0.40,0.86,-0.02,-8.48,-2.08,6.29
31460,0.42,0.76,0.02,-4.09,0.92,-4.76
31480,0.34,0.92,-0.01,1.22,3.11,-15.14
31500,0.30,1.09,-0.08,3.36,2.99,-14.59
31520,0.32,1.05,-0.09,4.21,2.01,-3.85
31540,0.34,0.98,-0.12,0.73,2.32,-0.24
31560,0.36,0.91,-0.09,-1.65,1.65,0.06
31580,0.37,0.82,-0.00,-1.59,1.22,-3.91
31600,0.28,1.09,-0.11,0.18,2.44,-8.48
31620,0.28,1.12,-0.10,-0.43,0.00,-0.24
31640,0.32,1.02,-0.08,-1.53,-0.79,6.65
31660,0.37,0.91,-0.05,-1.95,-0.24,9.03
31680,0.38,0.85,-0.04,-0.92,0.73,5.07
31700,0.37,0.90,-0.04,0.85,1.40,0.12
31720,0.26,1.15,-0.15,1.10,1.34,1.34
31740,0.31,1.09,-0.13,-2.75,-1.77,11.60
31760,0.33,1.00,-0.12,-6.96,-1.77,18.55
31780,0.38,0.90,-0.07,-10.38,-1.59,19.17
31800,0.40,0.85,-0.04,-10.74,-1.65,14.77
31820,0.40,0.86,-0.02,-9.03,-1.71,9.22
31840,0.38,0.93,-0.02,-5.86,-1.59,4.52
31860,0.38,0.96,-0.05,-5.00,-0.37,4.21
31880,0.37,0.99,-0.07,-5.37,-0.12,4.88
31900,0.37,0.99,-0.07,-6.96,-0.73,7.93
31920,0.39,0.94,-0.05,-8.24,-0.92,9.40
31940,0.41,0.88,-0.02,-8.00,-0.98,8.18
31960,0.42,0.87,-0.02,-6.90,-0.18,3.17
31980,0.41,0.91,-0.01,-4.64,-0.18,1.95
32000,0.42,0.89,-0.01,-3.36,0.31,-0.06
32020,0.41,0.91,-0.01,-1.40,1.22,-3.36
32040,0.41,0.89,0.01,2.14,2.01,-6.65
32060,0.40,0.91,-0.01,4.82,3.23,-9.03
32080,0.41,0.89,-0.04,6.96,3.66,-11.11
32100,0.39,0.93,-0.05,7.63,4.03,-15.44
32120,0.37,0.96,-0.05,7.69,3.78,-16.30
32140,0.36,0.98,-0.08,7.45,3.54,-15.63
32160,0.35,1.02,-0.09,3.85,1.71,-9.70
32180,0.38,0.93,-0.06,2.38,1.71,-6.77
32200,0.40,0.84,-0.01,2.75,2.56,-9.40
32220,0.40,0.89,-0.00,8.67,5.31,-20.02
32240,0.26,1.14,-0.11,10.62,5.68,-19.35
32260,0.29,1.14,-0.14,8.54,2.99,-7.39
32280,0.33,1.03,-0.15,2.32,1.10,2.26
32300,0.36,0.94,-0.08,-1.04,0.55,2.93
32320,0.38,0.87,-0.03,-1.04,0.85,1.40
32340,0.38,0.85,-0.01,1.65,2.44,-6.41
32360,0.34,0.95,-0.08,6.23,4.33,-10.38
32380,0.33,0.98,-0.10,6.04,3.11,-10.13
32400,0.33,0.97,-0.11,4.33,2.99,-9.09
32420,0.34,0.96,-0.11,2.14,2.26,-8.91
32440,0.35,0.92,-0.09,1.65,2.14,-9.83
32460,0.42,0.76,-0.02,3.23,3.11,-14.65
32480,0.31,0.87,-0.00,14.83,13.85,-36.68
32500,0.19,1.21,-0.11,19.17,12.88,-36.93
32520,0.22,1.18,-0.21,16.85,10.80,-21.55
32540,0.26,1.07,-0.25,8.06,6.65,-8.91
32560,0.28,0.99,-0.15,2.99,3.05,-4.64
32580,0.36,0.84,-0.08,2.20,2.81,-5.49
32600,0.47,0.60,-0.04,8.67,16.24,-31.31
32620,0.03,1.27,-0.36,11.78,32.35,-45.35
32640,0.01,1.35,-0.14,2.32,6.16,-21.24
32660,0.23,1.06,-0.15,1.95,-0.98,1.28
32680,0.26,0.97,-0.13,2.38,1.28,0.67
32700,0.29,0.91,-0.15,4.21,3.60,-1.22
32720,0.36,0.82,-0.18,4.70,11.41,-15.20
32740,0.28,1.01,-0.24,8.30,20.94,-29.79
32760,-0.08,1.26,-0.04,13.61,14.04,-27.16
32780,0.18,1.05,-0.11,6.16,-2.50,2.69
32800,0.23,0.97,-0.19,1.16,1.71,0.49
32820,0.22,0.97,-0.18,0.79,3.72,0.00
32840,0.23,0.97,-0.17,1.40,3.05,-2.08
32860,0.24,0.97,-0.18,2.26,4.58,-5.19
32880,0.25,0.96,-0.19,2.87,6.23,-8.91
32900,0.23,0.98,-0.16,3.60,8.18,-12.51
32920,0.18,1.00,-0.16,2.75,6.29,-12.88
32940,0.18,1.00,-0.17,2.20,3.72,-10.86
32960,0.18,0.99,-0.18,1.53,3.36,-8.18
32980,0.18,0.99,-0.18,0.43,2.32,-6.10
33000,0.18,0.99,-0.17,0.67,1.71,-5.25
33020,0.18,0.98,-0.18,0.92,1.95,-4.09
33040,0.18,0.98,-0.18,0.49,1.53,-2.87
33060,0.18,0.98,-0.18,0.37,1.40,-2.62
33080,0.18,0.98,-0.18,0.31,1.22,-1.95
33100,0.18,0.98,-0.19,0.12,1.40,-1.77
33120,0.18,0.99,-0.18,0.18,1.34,-1.28
33140,0.18,0.98,-0.19,0.06,1.10,-0.92
33160,0.18,0.98,-0.19,0.12,0.92,-0.79
33180,0.17,0.99,-0.18,-0.06,0.79,-0.24
33200,0.18,0.98,-0.19,-0.06,0.31,0.12
33220,0.18,0.98,-0.19,-0.55,0.06,0.55
33240,0.18,0.98,-0.19,-1.22,-0.43,1.16
33260,0.17,0.99,-0.18,-1.53,-0.55,1.83
33280,0.17,0.98,-0.19,-2.14,-1.10,2.38
33300,0.16,1.00,-0.17,-4.46,-3.36,5.62
33320,0.17,1.00,-0.17,-5.43,-4.64,8.73
33340,0.18,1.00,-0.17,-6.65,-5.74,11.05
33360,0.21,0.99,-0.18,-7.20,-5.86,11.78
33380,0.22,0.98,-0.18,-6.65,-5.80,11.29
33400,0.21,0.99,-0.17,-7.20,-5.55,10.62
33420,0.22,0.99,-0.18,-8.85,-6.35,11.41
33440,0.22,1.00,-0.19,-9.40,-6.53,12.15
33460,0.24,0.99,-0.17,-9.64,-6.96,12.45
33480,0.23,0.99,-0.16,-9.34,-7.26,11.78
33500,0.25,1.00,-0.16,-10.19,-7.63,12.57
33520,0.25,0.99,-0.15,-9.40,-6.71,13.24
33540,0.26,1.00,-0.16,-8.73,-5.80,15.20
33560,0.26,1.00,-0.17,-9.16,-4.39,16.24
33580,0.27,0.99,-0.14,-9.70,-4.64,17.15
33600,0.28,0.98,-0.14,-9.83,-4.21,18.07
33620,0.30,0.96,-0.11,-9.77,-4.15,17.82
33640,0.31,0.93,-0.09,-9.03,-3.11,16.36
33660,0.31,0.94,-0.10,-6.90,-1.71,14.40
33680,0.31,0.97,-0.13,-5.68,-1.04,12.63
33700,0.31,0.98,-0.15,-6.84,-1.22,12.63
33720,0.31,0.98,-0.14,-8.18,-1.83,13.67
33740,0.32,0.98,-0.13,-10.99,-2.75,15.44
33760,0.33,0.95,-0.10,-11.78,-3.11,16.05
33780,0.35,0.94,-0.09,-11.35,-3.05,15.20
33800,0.34,0.96,-0.07,-9.40,-2.44,14.28
33820,0.35,0.98,-0.06,-7.39,-1.83,14.83
33840,0.35,0.97,-0.09,-6.35,-0.79,15.69
33860,0.37,0.95,-0.11,-6.90,-0.98,16.85
33880,0.38,0.92,-0.10,-7.57,-1.65,16.24
33900,0.38,0.92,-0.07,-8.24,-2.14,15.01
33920,0.40,0.91,-0.04,-6.96,-1.77,12.45
33940,0.40,0.91,-0.04,-5.37,-1.16,10.68
33960,0.42,0.89,-0.04,-3.66,-0.06,8.24
33980,0.44,0.81,-0.01,0.79,2.26,1.34
34000,0.42,0.85,-0.02,3.72,3.36,-5.55
34020,0.36,0.99,-0.12,4.58,4.15,-8.54
34040,0.37,1.01,-0.14,2.81,1.34,-2.81
34060,0.38,0.97,-0.11,-2.32,-0.61,1.04
34080,0.41,0.90,-0.06,-4.09,-0.55,1.59
34100,0.42,0.86,-0.07,-3.91,0.55,-1.40
34120,0.46,0.73,0.10,0.79,0.92,-12.82
34140,0.33,1.05,-0.05,6.71,5.92,-21.79
34160,0.35,1.08,-0.06,11.11,2.26,-14.04
34180,0.38,0.96,-0.11,11.90,4.03,-3.66
34200,0.38,0.92,-0.15,9.77,6.41,-3.42
34220,0.42,0.86,-0.15,7.39,4.21,-6.04
34240,0.46,0.78,0.02,9.09,3.48,-20.20
34260,0.25,1.15,-0.13,11.54,8.42,-25.82
34280,0.30,1.12,-0.11,10.93,3.42,-12.45
34300,0.36,0.97,-0.15,8.54,5.00,-3.97
34320,0.35,0.95,-0.19,5.25,6.71,-3.78
34340,0.41,0.83,-0.14,2.26,4.33,-6.10
34360,0.46,0.64,0.05,6.59,9.22,-23.74
34380,0.23,1.14,-0.16,8.36,8.12,-24.41
34400,0.26,1.13,-0.20,6.23,5.31,-12.33
34420,0.31,1.03,-0.21,3.36,2.50,-2.99
34440,0.30,1.00,-0.19,-3.42,0.55,-0.55
34460,0.33,0.92,-0.11,-5.00,-1.10,0.37
34480,0.36,0.86,-0.07,-2.99,-0.18,-5.74
34500,0.38,0.76,-0.03,3.11,5.43,-14.34
34520,0.29,0.96,-0.12,7.45,10.38,-23.19
34540,0.25,1.08,-0.17,8.85,8.67,-20.39
34560,0.27,1.04,-0.23,6.04,6.53,-9.46
34580,0.28,0.99,-0.22,1.89,4.15,-6.35
34600,0.30,0.95,-0.16,-1.04,2.08,-5.55
34620,0.41,0.70,-0.09,-0.55,5.31,-13.85
34640,0.33,0.88,-0.12,2.32,15.50,-29.11
34660,0.10,1.25,-0.26,2.69,16.72,-27.89
34680,0.22,1.08,-0.13,-0.37,-0.06,-2.20
34700,0.27,0.98,-0.16,1.22,0.18,2.08
34720,0.28,0.93,-0.16,1.53,1.34,1.71
34740,0.31,0.90,-0.16,2.14,4.03,-4.58
34760,0.39,0.78,-0.17,2.69,7.93,-13.24
34780,0.44,0.70,-0.28,2.38,17.03,-29.79
34800,0.08,1.15,-0.32,5.31,19.78,-45.04
34820,0.08,1.17,0.01,5.55,0.49,-18.62
34840,0.24,0.94,-0.24,6.84,4.82,-4.09
34860,0.22,0.97,-0.20,1.59,8.97,-8.06
34880,0.21,0.99,-0.17,1.22,5.92,-10.86
34900,0.20,0.99,-0.18,1.34,5.43,-9.46
34920,0.18,0.99,-0.18,1.34,5.62,-9.16
34940,0.17,0.99,-0.18,1.40,3.97,-6.84
34960,0.17,0.99,-0.17,0.85,1.89,-4.88
34980,0.18,0.99,-0.17,0.92,1.40,-3.78
35000,0.19,0.98,-0.19,1.22,1.83,-2.20
35020,0.19,0.98,-0.19,0.55,1.59,-2.32
35040,0.18,0.98,-0.19,0.12,1.46,-2.08
35060,0.19,0.98,-0.19,0.12,1.10,-1.59
35080,0.19,0.98,-0.19,-0.18,1.10,-0.92
35100,0.18,0.98,-0.19,-0.43,1.10,-0.79
35120,0.19,0.98,-0.19,-0.67,0.85,-0.49
35140,0.19,0.98,-0.19,-0.79,0.85,-0.49
35160,0.19,0.99,-0.19,-0.73,0.55,-0.24
35180,0.19,0.98,-0.19,-0.85,0.67,-0.37
35200,0.18,0.98,-0.19,-0.98,0.55,-0.18
35220,0.19,0.98,-0.19,-1.04,0.18,0.18
35240,0.18,0.99,-0.19,-0.98,-0.24,1.04
35260,0.18,0.99,-0.19,-0.85,-0.18,1.28
35280,0.19,0.98,-0.19,-1.16,-0.61,1.83
35300,0.19,0.98,-0.19,-1.34,-0.49,1.89
35320,0.18,0.99,-0.19,-1.71,-0.61,2.08
35340,0.18,0.99,-0.19,-2.38,-1.59,2.75
35360,0.18,0.99,-0.18,-3.11,-2.69,4.27
35380,0.19,0.98,-0.19,-3.66,-3.23,5.92
35400,0.20,0.99,-0.18,-4.70,-4.03,6.59
35420,0.19,0.99,-0.19,-5.74,-4.33,8.06
35440,0.20,1.00,-0.18,-8.54,-5.92,9.83
35460,0.22,0.99,-0.17,-9.95,-6.65,11.35
35480,0.21,1.00,-0.17,-10.01,-6.10,12.02
35500,0.19,1.03,-0.22,-11.11,-8.30,15.14
35520,0.20,1.04,-0.20,-12.45,-12.21,18.80
35540,0.25,1.00,-0.21,-12.63,-13.49,21.36
35560,0.29,1.00,-0.17,-11.66,-13.73,22.58
35580,0.28,0.98,-0.19,-11.05,-11.17,23.62
35600,0.26,1.03,-0.15,-14.16,-9.95,23.80
35620,0.28,1.00,-0.12,-14.83,-9.16,27.34
35640,0.31,0.94,-0.12,-15.20,-7.87,28.14
35660,0.33,0.91,-0.12,-15.56,-6.84,26.25
35680,0.34,0.91,-0.11,-16.48,-6.77,21.55
35700,0.35,0.92,-0.09,-15.75,-5.92,18.74
35720,0.35,0.94,-0.08,-15.01,-5.00,16.17
35740,0.35,0.93,-0.09,-14.59,-4.33,14.59
35760,0.36,0.94,-0.07,-14.47,-3.97,12.27
35780,0.36,0.94,-0.08,-14.28,-3.72,11.54
35800,0.36,0.95,-0.07,-14.16,-3.36,10.44
35820,0.38,0.94,-0.06,-14.22,-3.05,10.25
35840,0.38,0.92,-0.03,-14.16,-2.44,9.16
35860,0.40,0.89,-0.02,-12.63,-1.89,7.51
35880,0.44,0.76,0.02,-9.28,0.31,1.46
35900,0.46,0.68,0.08,-3.11,2.20,-9.95
35920,0.39,0.91,0.08,7.08,4.58,-23.13
35940,0.31,1.09,-0.04,18.92,5.86,-15.50
35960,0.33,1.03,-0.17,18.49,9.77,-7.75
35980,0.35,0.98,-0.20,13.55,7.20,-4.46
36000,0.35,0.91,-0.08,3.05,2.69,-4.33
36020,0.34,0.97,-0.04,3.11,2.32,-6.59
36040,0.32,1.02,-0.06,4.88,2.62,-4.33
36060,0.34,0.98,-0.10,5.74,4.09,0.37
36080,0.37,0.91,-0.13,3.78,3.91,-1.34
36100,0.38,0.87,-0.11,2.32,2.50,-5.13
36120,0.41,0.77,0.02,3.05,3.54,-17.64
36140,0.33,0.97,-0.03,11.54,7.39,-23.74
36160,0.30,1.03,-0.07,15.01,7.93,-21.24
36180,0.30,1.02,-0.12,15.93,8.85,-17.21
36200,0.33,0.92,-0.15,13.18,10.07,-14.71
36220,0.34,0.83,-0.13,10.99,10.74,-19.04
36240,0.29,0.93,-0.12,11.17,12.27,-25.45
36260,0.20,1.20,-0.22,9.52,8.91,-16.17
36280,0.22,1.13,-0.26,3.17,4.03,-3.23
36300,0.26,1.03,-0.24,-2.93,-0.06,3.54
36320,0.30,0.97,-0.11,-9.03,-3.05,7.57
36340,0.32,0.89,-0.09,-7.63,-1.71,6.53
36360,0.36,0.82,-0.07,-4.09,0.24,1.53
36380,0.32,0.87,-0.03,4.27,6.23,-12.70
36400,0.24,1.06,-0.17,8.24,8.79,-16.24
36420,0.23,1.11,-0.22,6.96,5.74,-9.89
36440,0.26,1.03,-0.21,1.16,0.92,-0.37
36460,0.28,0.98,-0.16,-1.77,-0.18,1.59
36480,0.30,0.93,-0.13,-2.44,-0.79,1.83
36500,0.32,0.88,-0.12,-1.04,1.53,-4.09
36520,0.28,0.94,-0.15,-0.37,3.54,-8.73
36540,0.26,1.00,-0.16,-0.85,2.69,-9.09
36560,0.25,1.02,-0.15,-1.71,1.46,-5.43
36580,0.27,0.99,-0.15,-1.71,0.73,-3.11
36600,0.29,0.94,-0.14,-1.04,0.79,-3.11
36620,0.30,0.92,-0.13,-0.12,1.83,-5.37
36640,0.34,0.86,-0.13,1.77,6.41,-12.33
36660,0.37,0.81,-0.14,3.60,11.96,-21.73
36680,0.25,0.99,-0.23,4.03,19.17,-29.36
36700,0.16,1.10,-0.16,1.53,12.82,-26.55
36720,0.21,1.05,-0.13,6.71,10.07,-19.59
36740,0.20,1.00,-0.16,8.61,11.66,-16.17
36760,0.16,1.00,-0.19,5.25,12.39,-11.41
36780,0.19,1.00,-0.14,2.26,5.98,-10.25
36800,0.19,1.00,-0.15,2.20,5.13,-6.65
36820,0.21,0.98,-0.18,2.38,4.09,-5.19
36840,0.21,0.99,-0.15,1.95,3.48,-5.13
36860,0.19,0.99,-0.17,2.20,2.32,-4.58
36880,0.19,0.99,-0.17,1.83,1.46,-3.54
36900,0.20,0.98,-0.18,0.85,1.53,-2.75
36920,0.20,0.98,-0.18,0.43,1.04,-3.05
36940,0.20,0.98,-0.18,15.63,0.92,-3.60
36960,0.19,0.98,-0.18,0.12,0.98,-3.78
36980,0.19,0.98,-0.18,-0.06,1.10,-3.48
37000,0.19,0.98,-0.18,-0.31,1.10,-3.36
37020,0.19,0.98,-0.18,-0.49,1.28,-2.93
37040,0.19,0.98,-0.18,-0.43,1.53,-2.75
37060,0.19,0.98,-0.18,-0.37,1.59,-2.32
37080,0.19,0.98,-0.18,-0.31,1.22,-1.83
37100,0.19,0.98,-0.18,-0.12,1.16,-1.65
37120,0.19,0.98,-0.18,0.00,1.22,-1.77
37140,0.19,0.98,-0.18,0.12,1.34,-1.40
37160,0.19,0.98,-0.18,0.18,1.22,-1.34
37180,0.18,0.98,-0.18,0.00,1.28,-1.34
37200,0.18,0.98,-0.18,0.31,1.16,-1.28
37220,0.19,0.98,-0.19,0.24,1.04,-1.46
37240,0.19,0.98,-0.19,-0.06,0.92,-1.59
37260,0.19,0.98,-0.19,-0.31,0.85,-1.53
37280,0.18,0.99,-0.18,-0.49,1.04,-1.59
37300,0.18,0.98,-0.19,-0.37,0.73,-0.85
37320,0.18,0.98,-0.19,-0.24,0.43,-0.37
37340,0.18,0.99,-0.18,-0.79,0.18,-0.06
37360,0.18,0.98,-0.19,-0.67,-0.06,0.55
37380,0.18,0.99,-0.18,-0.73,-0.24,1.28
37400,0.18,0.98,-0.19,-1.34,-0.37,1.53
37420,0.18,0.98,-0.19,-1.53,-0.85,2.01
37440,0.18,0.98,-0.19,-2.38,-1.16,2.26
37460,0.18,0.99,-0.18,-3.72,-2.38,3.85
37480,0.19,0.99,-0.19,-4.46,-2.93,5.13
37500,0.20,0.98,-0.18,-5.62,-3.60,5.62
37520,0.19,1.00,-0.17,-6.77,-4.64,7.14
37540,0.18,1.00,-0.18,-8.24,-6.04,9.46
37560,0.21,0.99,-0.18,-10.86,-7.02,10.99
37580,0.21,1.00,-0.17,-11.54,-5.80,10.56
37600,0.22,1.00,-0.17,-12.21,-6.10,11.60
37620,0.21,1.01,-0.17,-11.96,-6.53,12.39
37640,0.20,1.04,-0.17,-11.23,-7.20,14.89
37660,0.22,1.04,-0.18,-11.60,-9.58,18.62
37680,0.24,1.04,-0.17,-11.35,-10.31,21.06
37700,0.26,1.04,-0.20,-11.29,-8.79,24.48
37720,0.26,1.01,-0.20,-14.89,-9.09,26.18
37740,0.28,0.99,-0.16,-17.94,-9.83,27.22
37760,0.29,0.98,-0.12,-20.94,-10.86,27.71
37780,0.31,0.95,-0.09,-20.75,-9.03,26.79
37800,0.33,0.92,-0.07,-20.02,-8.24,25.82
37820,0.34,0.92,-0.06,-18.25,-6.35,21.79
37840,0.36,0.89,-0.05,-15.01,-4.58,18.80
37860,0.36,0.91,-0.06,-13.31,-3.23,15.01
37880,0.36,0.93,-0.06,-12.02,-3.30,12.70
37900,0.36,0.95,-0.05,-10.80,-2.14,10.86
37920,0.36,0.95,-0.06,-10.80,-1.65,10.74
37940,0.36,0.95,-0.08,-11.41,-0.85,10.62
37960,0.37,0.94,-0.07,-13.79,-1.95,11.11
37980,0.39,0.92,-0.04,-14.65,-2.32,10.50
38000,0.41,0.89,-0.03,-14.47,-2.14,8.61
38020,0.48,0.69,0.08,-9.52,-1.28,-0.67
38040,0.48,0.62,0.15,-0.12,1.65,-16.72
38060,0.38,0.88,0.09,10.80,5.86,-33.51
38080,0.27,1.17,-0.10,18.13,4.76,-25.63
38100,0.29,1.13,-0.20,13.73,6.71,-13.31
38120,0.32,1.06,-0.18,5.74,2.99,-4.76
38140,0.34,0.97,-0.10,-2.20,-0.12,0.79
38160,0.38,0.85,0.00,-2.14,0.06,-2.81
38180,0.34,0.94,-0.04,0.37,1.40,-7.51
38200,0.34,0.99,-0.06,1.53,1.22,-6.04
38220,0.35,0.96,-0.03,3.30,0.73,-5.25
38240,0.36,0.92,-0.01,6.04,2.26,-6.71
38260,0.39,0.80,0.02,9.95,4.82,-27.28
38280,0.31,0.95,-0.02,21.48,10.44,-24.35
38300,0.27,1.09,-0.09,25.09,9.77,-22.09
38320,0.29,1.01,-0.15,23.99,9.40,-14.22
38340,0.31,0.95,-0.22,12.08,8.24,-12.76
38360,0.35,0.86,-0.13,6.04,5.92,-15.38
38380,0.33,0.84,-0.04,6.29,6.71,-22.58
38400,0.21,1.14,-0.14,8.97,7.45,-23.32
38420,0.24,1.09,-0.16,8.24,6.96,-13.43
38440,0.27,0.99,-0.17,6.96,6.53,-8.97
38460,0.28,0.94,-0.14,2.20,6.23,-11.05
38480,0.29,0.94,-0.12,1.65,6.53,-13.55
38500,0.26,0.97,-0.15,1.95,8.18,-15.56
38520,0.21,1.02,-0.16,1.40,7.32,-12.27
38540,0.21,1.04,-0.12,0.73,4.39,-7.51
38560,0.24,0.99,-0.13,1.04,2.69,-3.72
38580,0.27,0.95,-0.14,2.20,4.46,-5.07
38600,0.34,0.85,-0.15,2.69,8.30,-10.50
38620,0.23,0.98,-0.25,3.11,15.81,-19.78
38640,0.06,1.17,-0.10,4.46,8.73,-10.62
38660,0.25,0.99,-0.13,4.58,-1.28,1.95
38680,0.25,0.95,-0.19,4.39,3.11,0.43
38700,0.24,0.97,-0.16,1.83,3.23,-2.08
38720,0.27,0.94,-0.18,2.93,4.64,-5.74
38740,0.28,0.94,-0.19,4.27,7.26,-11.05
38760,0.21,0.98,-0.19,6.41,10.74,-16.66
38780,0.12,1.05,-0.10,5.31,3.54,-10.56
38800,0.22,0.97,-0.18,3.85,2.75,-2.81
38820,0.21,0.98,-0.18,2.14,2.56,-4.46
38840,0.20,0.98,-0.17,2.44,3.48,-5.55
38860,0.20,0.98,-0.18,2.38,3.17,-5.86
38880,0.20,0.98,-0.18,2.08,2.87,-6.59
38900,0.20,0.98,-0.17,2.56,3.05,-7.57
38920,0.18,0.99,-0.18,2.44,3.78,-7.45
38940,0.16,1.00,-0.16,1.71,2.50,-6.29
38960,0.17,0.99,-0.17,1.77,1.04,-1.77
38980,0.19,0.98,-0.19,1.22,0.98,-1.10
39000,0.19,0.98,-0.19,0.92,1.22,-1.34
39020,0.19,0.98,-0.18,0.00,1.34,-1.34
39040,0.19,0.98,-0.19,-0.49,1.40,-1.10
39060,0.18,0.98,-0.19,-0.67,1.34,-1.28
39080,0.19,0.98,-0.18,-0.85,1.28,-1.04
39100,0.18,0.98,-0.18,-0.92,1.34,-1.22
39120,0.18,0.98,-0.18,-0.79,1.22,-1.22
39140,0.18,0.98,-0.18,-0.55,1.16,-0.79
39160,0.18,0.99,-0.18,-0.61,0.79,-0.37
39180,0.18,0.98,-0.18,-0.61,0.37,0.31
39200,0.19,0.98,-0.19,-0.61,0.24,0.24
39220,0.19,0.99,-0.18,-0.73,0.12,0.31
39240,0.18,0.98,-0.18,-0.85,0.06,0.37
39260,0.18,0.98,-0.18,-0.67,-0.18,0.92
39280,0.18,0.98,-0.19,-1.28,-0.55,1.65
39300,0.19,0.98,-0.20,-2.44,-1.28,2.08
39320,0.19,0.98,-0.18,-3.66,-1.53,1.95
39340,0.19,0.98,-0.18,-3.78,-1.65,2.14
39360,0.18,0.99,-0.18,-4.27,-1.95,2.38
39380,0.19,0.99,-0.18,-4.70,-2.50,2.87
39400,0.20,0.98,-0.18,-5.19,-2.87,2.99
39420,0.20,0.98,-0.18,-5.43,-2.62,2.81
39440,0.20,0.98,-0.18,-5.62,-2.44,2.56
39460,0.20,0.99,-0.17,-5.80,-2.44,2.99
39480,0.20,0.99,-0.17,-6.65,-2.56,3.54
39500,0.21,0.98,-0.16,-6.77,-2.69,3.91
39520,0.21,0.99,-0.16,-6.41,-2.20,4.09
39540,0.21,0.99,-0.16,-5.62,-2.01,4.76
39560,0.21,0.99,-0.16,-5.92,-2.50,5.98
39580,0.21,0.99,-0.15,-6.59,-2.93,7.32
39600,0.22,0.99,-0.16,-7.39,-3.11,8.97
39620,0.22,1.00,-0.16,-8.12,-3.48,9.52
39640,0.23,1.00,-0.14,-8.24,-4.27,10.68
39660,0.23,0.99,-0.16,-7.02,-3.72,10.86
39680,0.24,0.99,-0.16,-7.14,-4.64,10.93
39700,0.24,1.00,-0.15,-7.45,-5.00,11.11
39720,0.25,1.01,-0.16,-7.08,-5.55,12.70
39740,0.26,1.02,-0.16,-7.63,-5.55,13.98
39760,0.27,1.00,-0.15,-8.18,-5.92,15.63
39780,0.27,1.00,-0.15,-11.17,-6.71,17.27
39800,0.27,1.00,-0.15,-12.70,-6.29,17.82
39820,0.29,0.97,-0.11,-14.10,-7.45,18.92
39840,0.30,0.96,-0.10,-14.04,-6.04,17.58
39860,0.32,0.94,-0.08,-13.37,-4.70,16.17
39880,0.32,0.93,-0.08,-12.51,-3.66,14.22
39900,0.33,0.95,-0.08,-11.72,-3.23,11.66
39920,0.34,0.93,-0.08,-11.35,-2.62,10.44
39940,0.34,0.93,-0.07,-11.23,-2.32,8.24
39960,0.35,0.92,-0.06,-10.74,-1.95,6.23
39980,0.39,0.83,-0.01,-8.61,-0.55,1.65
40000,0.38,0.83,0.02,-4.15,1.16,-5.92
40020,0.33,0.92,0.02,2.20,3.05,-12.39
40040,0.30,1.06,-0.09,8.91,5.31,-10.80
40060,0.31,1.03,-0.16,8.48,4.64,-5.19
40080,0.31,1.01,-0.17,3.97,2.99,-2.08
40100,0.34,0.95,-0.05,-0.12,0.06,0.24
40120,0.36,0.85,0.04,2.69,1.16,-2.32
40140,0.31,0.96,-0.05,7.57,5.49,-7.81
40160,0.28,1.02,-0.12,8.30,4.09,-2.56
40180,0.30,1.01,-0.17,5.00,3.60,0.67
40200,0.31,0.99,-0.15,1.16,0.98,2.20
40220,0.34,0.92,-0.08,-0.49,-0.61,1.59
40240,0.35,0.86,-0.00,2.20,1.34,-3.17
40260,0.32,0.95,-0.05,6.29,5.13,-8.36
40280,0.31,1.00,-0.11,8.61,5.49,-7.93
40300,0.30,1.00,-0.15,6.10,4.76,-6.04
40320,0.30,0.98,-0.14,3.60,3.54,-4.76
40340,0.31,0.95,-0.11,2.69,2.26,-4.58
40360,0.35,0.85,-0.07,3.36,3.11,-7.63
40380,0.33,0.85,-0.08,3.91,6.47,-15.08
40400,0.27,1.02,-0.14,4.82,6.90,-19.84
40420,0.24,1.10,-0.15,2.26,2.87,-9.46
40440,0.26,1.03,-0.17,0.67,2.26,-2.69
40460,0.28,0.97,-0.14,-0.55,1.10,0.49
40480,0.32,0.91,-0.10,-0.85,1.22,-1.22
40500,0.36,0.83,-0.08,0.37,2.93,-6.35
40520,0.44,0.61,-0.00,3.66,7.39,-18.92
40540,0.24,1.09,-0.22,10.86,24.05,-43.27
40560,0.09,1.22,-0.25,9.46,20.51,-33.94
40580,0.16,1.11,-0.18,1.53,7.45,-17.88
40600,0.23,0.97,-0.15,-0.79,6.65,-10.86
40620,0.28,0.93,-0.18,-1.53,9.09,-13.61
40640,0.31,0.94,-0.16,-0.24,13.31,-19.71
40660,0.09,1.07,-0.12,5.49,7.81,-19.84
40680,0.17,1.05,-0.10,3.72,-2.32,-1.34
40700,0.24,0.95,-0.18,3.42,0.31,2.75
40720,0.21,0.98,-0.15,2.75,1.34,0.00
40740,0.22,0.98,-0.16,3.42,0.79,-0.18
40760,0.22,0.98,-0.15,3.78,0.79,-0.98
40780,0.22,0.97,-0.17,3.11,0.92,-1.65
40800,0.21,0.98,-0.16,2.50,3.60,-4.09
40820,0.18,1.00,-0.15,2.93,3.48,-4.46
40840,0.19,1.00,-0.16,1.34,0.61,-2.01
40860,0.21,0.97,-0.17,0.67,0.92,-0.98
40880,0.21,0.98,-0.17,0.31,1.46,-2.08
40900,0.21,0.98,-0.17,-0.31,1.53,-2.87
40920,0.21,0.99,-0.17,0.00,1.59,-3.23
40940,0.21,0.98,-0.17,0.43,1.83,-3.48
40960,0.21,0.98,-0.17,0.67,2.32,-4.15
40980,0.20,0.98,-0.17,1.53,3.30,-5.92
41000,0.18,0.99,-0.16,1.77,3.23,-6.04
41020,0.18,0.99,-0.17,1.71,2.01,-4.52
41040,0.19,0.98,-0.17,1.16,2.01,-3.11
41060,0.19,0.98,-0.17,0.98,1.71,-3.30
41080,0.20,0.98,-0.18,0.73,1.77,-3.36
41100,0.19,0.98,-0.18,-0.06,2.20,-4.15
41120,0.19,0.98,-0.18,-0.18,2.56,-4.70
41140,0.19,0.98,-0.18,-0.43,2.50,-4.88
41160,0.18,0.99,-0.17,-0.55,2.14,-4.03
41180,0.17,0.99,-0.17,-0.37,1.40,-2.62
41200,0.18,0.99,-0.18,-0.85,1.22,-1.46
41220,0.18,0.99,-0.18,-1.10,0.98,-0.92
41240,0.18,0.99,-0.18,-0.92,0.98,-1.10
41260,0.18,0.98,-0.17,-0.85,0.79,-1.04
41280,0.17,0.99,-0.17,-0.55,0.92,-0.67
41300,0.18,0.99,-0.17,-0.61,-0.12,0.55
41320,0.18,0.98,-0.18,-0.55,-0.43,1.22
41340,0.18,0.98,-0.18,-0.67,-0.49,1.28
41360,0.18,0.99,-0.17,-1.22,-0.85,1.59
41380,0.17,0.99,-0.17,-1.22,-1.10,2.26
41400,0.17,0.99,-0.17,-2.08,-2.08,3.66
41420,0.21,0.99,-0.17,-4.27,-4.27,6.53
41440,0.20,0.98,-0.18,-5.00,-4.15,6.59
41460,0.19,0.99,-0.17,-5.43,-3.97,6.29
41480,0.21,0.99,-0.17,-5.25,-3.72,6.71
41500,0.21,0.98,-0.17,-5.00,-3.17,6.04
41520,0.21,0.99,-0.16,-5.07,-3.36,5.92
41540,0.21,0.99,-0.16,-4.76,-3.17,6.10
41560,0.22,0.98,-0.17,-5.31,-3.23,6.59
41580,0.22,0.98,-0.17,-6.41,-3.11,6.53
41600,0.21,0.99,-0.15,-6.16,-2.87,6.10
41620,0.22,1.00,-0.15,-6.29,-3.48,7.32
41640,0.21,1.00,-0.16,-5.74,-3.78,8.18
41660,0.22,1.00,-0.16,-6.16,-4.09,9.70
41680,0.25,0.98,-0.16,-7.32,-4.64,10.68
41700,0.24,0.98,-0.15,-7.87,-3.97,10.25
41720,0.26,0.95,-0.14,-6.84,-3.36,8.91
41740,0.26,0.98,-0.13,-5.49,-2.44,6.90
41760,0.25,1.00,-0.14,-5.13,-2.75,7.32
41780,0.26,0.98,-0.14,-5.43,-3.30,8.36
41800,0.26,1.00,-0.14,-6.77,-3.05,10.07
41820,0.26,1.00,-0.15,-7.75,-3.05,11.96
41840,0.28,0.97,-0.14,-8.42,-3.66,12.70
41860,0.29,0.95,-0.11,-8.48,-3.78,11.72
41880,0.31,0.92,-0.09,-7.63,-2.93,9.28
41900,0.35,0.83,-0.04,-5.55,-1.34,4.39
41920,0.33,0.84,-0.04,0.31,2.99,-7.51
41940,0.26,1.03,-0.09,4.03,4.52,-10.93
41960,0.26,1.05,-0.14,5.86,3.60,-6.71
41980,0.26,1.04,-0.20,3.54,1.65,0.67
42000,0.27,1.02,-0.17,-4.39,-0.79,2.99
42020,0.28,0.99,-0.12,-6.65,-2.20,5.43
42040,0.29,0.97,-0.08,-6.23,-1.83,6.29
42060,0.27,1.00,-0.10,-3.66,-0.73,6.84
42080,0.26,1.05,-0.14,-3.66,-0.98,10.07
42100,0.29,1.01,-0.16,-5.43,-2.50,14.34
42120,0.31,0.97,-0.17,-9.46,-3.91,16.17
42140,0.32,0.94,-0.13,-12.45,-5.68,15.75
42160,0.31,0.99,-0.10,-14.10,-6.10,14.40
42180,0.32,0.99,-0.06,-13.98,-6.47,16.36
42200,0.34,0.96,-0.06,-12.76,-5.80,17.76
42220,0.36,0.92,-0.04,-11.35,-3.97,16.78
42240,0.38,0.89,-0.05,-9.52,-2.14,12.39
42260,0.37,0.90,-0.07,-8.61,-1.46,8.97
42280,0.36,0.95,-0.09,-8.91,-2.08,6.77
42300,0.35,0.99,-0.08,-10.44,-3.23,8.48
42320,0.35,1.01,-0.06,-11.23,-2.50,10.93
42340,0.38,0.96,-0.05,-12.08,-2.75,13.49
42360,0.40,0.90,-0.04,-11.47,-1.59,11.41
42380,0.40,0.89,-0.02,-10.01,-0.85,7.93
42400,0.42,0.85,0.01,-7.87,-1.10,4.70
42420,0.42,0.86,0.02,-4.58,-0.18,-2.26
42440,0.43,0.82,0.03,1.40,1.53,-7.57
42460,0.39,0.89,-0.01,4.15,3.72,-14.40
42480,0.38,0.94,-0.05,6.29,3.78,-16.91
42500,0.37,0.97,-0.07,6.29,2.99,-16.85
42520,0.37,0.94,-0.05,5.74,3.17,-16.60
42540,0.38,0.84,0.03,7.08,3.42,-18.98
42560,0.28,1.12,-0.10,7.87,4.46,-19.29
42580,0.30,1.08,-0.12,5.98,3.17,-9.16
42600,0.32,1.05,-0.16,1.46,1.59,-2.81
42620,0.34,0.97,-0.11,-5.80,-1.22,2.20
42640,0.37,0.89,-0.01,-6.53,-2.32,1.77
42660,0.38,0.83,0.06,-2.69,-0.61,-3.17
42680,0.33,0.97,-0.03,5.43,4.15,-12.21
42700,0.33,0.99,-0.09,7.14,3.91,-11.05
42720,0.33,0.99,-0.13,5.43,3.54,-9.89
42740,0.33,0.96,-0.09,2.81,1.28,-9.58
42760,0.36,0.91,-0.04,3.54,1.65,-11.35
42780,0.47,0.67,0.00,6.65,4.46,-18.49
42800,0.51,0.48,0.18,15.99,18.13,-55.36
42820,0.12,1.37,-0.05,29.91,11.72,-50.66
42840,0.18,1.22,-0.28,26.06,15.14,-25.09
42860,0.23,1.09,-0.38,16.11,11.72,-14.77
42880,0.27,0.98,-0.10,-0.18,3.05,-10.01
42900,0.31,0.86,-0.06,1.22,5.68,-13.31
42920,0.19,1.03,-0.18,3.85,10.13,-16.60
42940,0.19,1.08,-0.12,-2.62,0.12,-3.36
42960,0.26,0.99,-0.08,-1.28,-0.85,1.22
42980,0.27,0.95,-0.09,2.32,2.20,-0.18
43000,0.29,0.92,-0.15,4.58,5.37,-5.19
43020,0.38,0.81,-0.14,4.64,8.06,-12.33
43040,0.25,0.95,-0.20,6.23,18.74,-26.18
43060,0.09,1.15,-0.07,7.08,0.06,-10.25
43080,0.26,0.97,-0.15,2.20,-0.67,1.46
43100,0.24,0.98,-0.14,0.43,0.98,-1.22
43120,0.24,0.94,-0.15,1.77,4.15,-2.62
43140,0.27,0.94,-0.16,2.81,5.19,-6.59
43160,0.29,0.93,-0.18,6.29,10.07,-13.37
43180,0.15,1.01,-0.17,11.11,12.57,-17.82
43200,0.12,1.05,-0.10,6.53,1.77,-8.36
43220,0.21,0.97,-0.18,2.93,0.55,-1.28
43240,0.20,0.99,-0.16,0.67,3.17,-1.53
43260,0.21,0.98,-0.17,1.46,2.99,-2.75
43280,0.21,0.98,-0.17,1.71,3.66,-4.39
43300,0.21,0.98,-0.18,1.77,4.76,-6.16
43320,0.16,1.00,-0.16,1.46,3.17,-6.65
43340,0.17,1.00,-0.16,0.49,0.85,-3.05
43360,0.19,0.98,-0.18,-0.43,0.43,-0.55
43380,0.19,0.98,-0.17,-1.10,0.73,-0.98
43400,0.19,0.98,-0.17,-1.28,0.79,-1.28
43420,0.19,0.98,-0.17,-0.85,0.92,-1.53
43440,0.19,0.99,-0.17,-1.04,0.85,-1.53
43460,0.18,0.99,-0.17,-1.16,0.37,-0.73
43480,0.19,0.99,-0.17,-1.65,-0.43,0.43
43500,0.19,0.99,-0.17,-1.65,-0.49,0.79
43520,0.19,0.98,-0.17,-1.40,-0.06,0.49
43540,0.18,0.99,-0.17,-1.71,0.37,0.06
43560,0.17,0.99,-0.16,-2.87,-0.61,1.46
43580,0.19,0.99,-0.16,-3.72,-2.38,2.93
43600,0.20,0.98,-0.17,-3.72,-2.44,3.30
43620,0.19,0.99,-0.16,-4.15,-2.44,3.78
43640,0.18,1.00,-0.16,-5.68,-4.21,5.92
43660,0.20,1.00,-0.15,-8.48,-5.00,7.93
43680,0.22,0.98,-0.17,-8.97,-4.64,8.06
43700,0.20,1.00,-0.15,-9.28,-4.70,7.93
43720,0.21,1.00,-0.15,-9.58,-5.07,9.28
43740,0.21,1.00,-0.14,-10.01,-5.62,10.31
43760,0.22,1.02,-0.14,-10.44,-6.16,12.94
43780,0.25,0.99,-0.15,-10.07,-6.23,14.10
43800,0.24,1.00,-0.14,-9.70,-5.74,13.49
43820,0.26,0.97,-0.12,-7.87,-5.49,12.63
43840,0.26,1.00,-0.13,-6.23,-4.70,11.54
43860,0.27,0.97,-0.11,-5.07,-3.97,11.11
43880,0.25,0.99,-0.14,-4.52,-2.81,9.52
43900,0.25,1.01,-0.14,-5.68,-3.17,10.50
43920,0.26,1.02,-0.14,-7.32,-3.54,12.76
43940,0.28,0.98,-0.14,-10.01,-3.66,15.44
43960,0.28,0.98,-0.13,-11.90,-3.66,15.50
43980,0.29,0.99,-0.11,-13.31,-4.46,15.81
44000,0.30,0.97,-0.10,-13.43,-4.27,16.36
44020,0.31,0.95,-0.08,-13.12,-3.42,15.56
44040,0.32,0.96,-0.07,-12.63,-3.23,14.83
44060,0.32,0.97,-0.07,-11.72,-2.87,15.01
44080,0.33,0.95,-0.08,-10.44,-1.71,14.04
44100,0.34,0.95,-0.07,-10.25,-2.01,13.31
44120,0.35,0.95,-0.05,-9.70,-2.08,12.63
44140,0.35,0.94,-0.04,-7.93,-1.22,10.62
44160,0.36,0.92,-0.04,-6.41,-0.79,9.34
44180,0.38,0.91,-0.03,-4.76,0.12,6.90
44200,0.39,0.85,-0.01,-0.73,1.59,2.01
44220,0.37,0.88,-0.02,1.89,3.36,-2.93
44240,0.33,1.00,-0.06,3.85,3.42,-5.86
44260,0.34,1.01,-0.09,3.48,2.14,-0.79
44280,0.35,0.98,-0.09,2.01,2.01,1.77
44300,0.37,0.91,-0.06,1.16,2.38,1.89
44320,0.41,0.76,-0.00,2.32,3.42,-5.55
44340,0.38,0.83,0.01,7.93,4.88,-16.60
44360,0.28,1.12,-0.08,10.19,5.19,-19.96
44380,0.30,1.09,-0.11,10.93,4.76,-5.68
44400,0.34,0.97,-0.10,9.95,4.33,-0.67
44420,0.35,0.93,-0.15,7.57,6.59,-0.92
44440,0.37,0.75,-0.08,6.77,3.42,-9.64
44460,0.24,1.11,-0.15,7.57,6.84,-17.03
44480,0.29,1.10,-0.07,7.51,0.18,-7.02
44500,0.30,1.01,-0.14,6.29,3.72,0.85
44520,0.33,0.94,-0.12,2.75,4.15,0.61
44540,0.35,0.90,-0.10,2.01,3.36,-1.16
44560,0.37,0.82,-0.10,2.38,3.66,-6.29
44580,0.32,0.91,-0.10,6.10,6.41,-20.81
44600,0.26,1.08,-0.12,7.08,4.94,-21.48
44620,0.27,1.05,-0.11,7.26,4.33,-14.47
44640,0.29,0.98,-0.14,7.02,5.19,-9.40
44660,0.32,0.91,-0.15,5.49,6.35,-9.77
44680,0.36,0.73,-0.11,5.19,6.53,-14.95
44700,0.28,0.97,-0.15,6.59,12.57,-30.70
44720,0.16,1.23,-0.23,5.13,12.45,-27.22
44740,0.20,1.13,-0.16,2.62,4.64,-14.04
44760,0.25,1.01,-0.14,1.40,3.48,-5.62
44780,0.27,0.95,-0.16,1.53,4.03,-4.52
44800,0.34,0.85,-0.14,1.89,5.19,-8.30
44820,0.44,0.72,-0.14,5.13,20.26,-30.82
44840,0.07,1.14,-0.40,5.68,30.58,-46.33
44860,-0.07,1.29,0.01,9.52,9.40,-33.69
44880,0.17,1.05,-0.11,7.93,2.32,-3.48
44900,0.22,0.96,-0.20,2.81,3.78,-4.82
44920,0.21,0.98,-0.18,1.40,4.94,-8.00
44940,0.21,0.98,-0.17,1.59,5.13,-10.13
44960,0.19,0.99,-0.17,3.66,4.88,-11.29
44980,0.17,0.99,-0.18,4.70,3.60,-11.23
45000,0.16,1.00,-0.17,2.87,1.89,-9.34
45020,0.16,0.99,-0.18,1.22,1.65,-4.15
45040,0.18,0.98,-0.19,0.49,0.92,-1.95
45060,0.19,0.98,-0.19,-0.31,0.43,-1.16
45080,0.18,0.98,-0.18,-1.28,0.98,-1.53
45100,0.18,0.99,-0.18,-1.34,1.10,-1.83
45120,0.18,0.98,-0.18,-1.46,1.34,-1.95
45140,0.18,0.99,-0.18,-1.28,1.40,-2.26
45160,0.18,0.99,-0.18,-1.10,1.16,-2.32
45180,0.18,0.99,-0.18,-0.73,1.22,-2.20
45200,0.17,0.99,-0.18,-0.37,0.98,-1.34
45220,0.18,0.99,-0.18,-0.06,0.37,-0.37
45240,0.18,0.98,-0.18,-0.31,0.37,-0.12
45260,0.18,0.98,-0.19,-0.85,0.55,-0.37
45280,0.18,0.99,-0.18,-0.73,0.67,-0.55
45300,0.18,0.99,-0.18,-0.92,0.79,-0.43
45320,0.18,0.98,-0.18,-0.92,0.49,-0.12
45340,0.18,0.98,-0.18,-1.10,0.18,0.18
45360,0.18,0.99,-0.18,-1.40,0.06,0.49
45380,0.18,0.98,-0.18,-1.53,-0.18,0.98
45400,0.17,0.99,-0.17,-2.26,-1.04,2.01
45420,0.18,0.99,-0.18,-2.38,-1.59,2.50
45440,0.18,0.98,-0.19,-3.48,-1.95,3.11
45460,0.16,1.00,-0.18,-4.82,-3.97,5.80
45480,0.17,1.00,-0.16,-7.26,-6.10,8.97
45500,0.17,1.00,-0.18,-9.09,-7.39,11.35
45520,0.21,0.99,-0.18,-14.40,-9.77,14.65
45540,0.21,1.01,-0.15,-14.10,-9.40,14.53
45560,0.19,1.03,-0.18,-13.55,-8.36,15.63
45580,0.21,1.04,-0.17,-13.61,-10.38,19.65
45600,0.23,1.03,-0.16,-13.92,-11.66,22.09
45620,0.27,1.02,-0.16,-13.00,-11.96,24.84
45640,0.28,1.00,-0.18,-14.71,-10.01,26.43
45660,0.27,0.99,-0.14,-16.17,-10.44,26.86
45680,0.27,1.00,-0.11,-17.09,-9.70,27.65
45700,0.29,0.96,-0.09,-16.30,-8.48,28.32
45720,0.31,0.97,-0.09,-15.14,-6.04,26.37
45740,0.33,0.93,-0.08,-14.04,-5.92,25.70
45760,0.34,0.94,-0.06,-11.90,-4.52,22.77
45780,0.35,0.94,-0.07,-9.46,-3.85,21.91
45800,0.35,0.94,-0.09,-9.28,-3.17,20.51
45820,0.37,0.91,-0.07,-9.09,-3.36,18.86
45840,0.37,0.93,-0.06,-7.75,-2.44,15.14
45860,0.38,0.92,-0.04,-6.90,-2.44,14.16
45880,0.39,0.92,-0.07,-6.53,-1.53,12.39
45900,0.38,0.96,-0.07,-6.77,-1.59,10.50
45920,0.38,0.97,-0.06,-7.51,-1.89,11.41
45940,0.39,0.95,-0.05,-7.75,-1.71,12.39
45960,0.40,0.93,-0.06,-8.06,-1.22,11.66
45980,0.40,0.92,-0.05,-8.00,-1.59,10.93
46000,0.40,0.93,-0.04,-7.32,-1.59,10.56
46020,0.41,0.92,-0.04,-6.35,-1.10,9.58
46040,0.42,0.91,-0.04,-6.23,-0.85,8.91
46060,0.43,0.90,-0.03,-5.92,-0.61,7.14
46080,0.45,0.86,-0.02,-4.64,0.06,2.62
46100,0.46,0.80,0.01,-2.62,0.67,-2.81
46120,0.46,0.82,0.02,0.37,1.53,-10.68
46140,0.42,0.89,-0.00,3.23,2.69,-18.01
46160,0.39,0.98,-0.06,6.16,2.14,-17.15
46180,0.38,0.98,-0.09,4.52,2.44,-14.95
46200,0.40,0.93,-0.07,2.50,2.32,-13.00
46220,0.37,0.96,-0.05,1.46,2.56,-15.32
46240,0.38,0.97,-0.02,2.81,0.98,-13.49
46260,0.38,0.96,-0.01,4.46,2.38,-11.96
46280,0.42,0.87,-0.06,7.45,5.43,-13.85
46300,0.45,0.72,0.02,8.91,5.68,-21.55
46320,0.32,0.98,-0.06,12.63,8.85,-31.92
46340,0.30,1.08,0.01,18.86,5.37,-23.01
46360,0.36,0.90,-0.08,21.00,9.46,-16.91
46380,0.36,0.85,-0.17,16.66,13.24,-21.42
46400,0.29,1.01,-0.21,7.26,8.85,-26.18
46420,0.28,1.06,-0.14,2.50,3.66,-22.64
46440,0.32,0.98,-0.07,2.01,2.38,-19.17
46460,0.34,0.76,-0.03,6.65,8.30,-24.11
46480,0.37,0.67,0.05,12.08,15.01,-36.87
46500,0.20,1.21,-0.24,17.82,25.15,-46.63
46520,0.06,1.43,-0.29,10.13,8.67,-15.81
46540,0.23,1.05,-0.18,2.69,-0.55,-0.43
46560,0.28,0.94,-0.14,-0.85,0.18,1.59
46580,0.30,0.90,-0.12,-1.77,3.17,-4.46
46600,0.44,0.69,-0.12,1.77,10.31,-17.27
46620,0.14,1.13,-0.27,4.64,24.66,-35.28
46640,-0.01,1.35,0.04,6.41,4.09,-19.90
46660,0.29,0.91,-0.20,6.04,-0.92,4.76
46680,0.23,0.97,-0.17,1.83,1.04,-0.49
46700,0.25,0.96,-0.15,0.24,1.40,-1.16
46720,0.25,0.96,-0.16,0.98,2.75,-5.74
46740,0.25,0.97,-0.16,1.65,4.09,-7.87
46760,0.31,0.92,-0.17,3.72,6.71,-11.72
46780,0.13,1.05,-0.17,12.94,15.44,-24.66
46800,0.07,1.08,-0.10,10.80,7.93,-16.05
46820,0.18,1.00,-0.16,5.49,-0.73,-4.88
46840,0.20,0.98,-0.18,2.01,3.17,-1.53
46860,0.21,0.98,-0.17,1.40,2.08,-2.01
46880,0.21,0.98,-0.18,1.59,2.50,-3.30
46900,0.21,0.98,-0.18,1.77,3.60,-5.25
46920,0.20,0.98,-0.18,1.89,3.85,-6.59
46940,0.18,0.99,-0.17,1.59,3.48,-7.32
46960,0.18,0.99,-0.18,0.92,2.44,-5.86
46980,0.18,0.98,-0.18,0.37,1.77,-5.13
47000,0.18,0.99,-0.18,0.12,1.22,-4.82
47020,0.18,0.99,-0.18,0.12,0.85,-4.33
47040,0.18,0.99,-0.18,-0.31,0.31,-4.09
47060,0.18,0.99,-0.18,-0.67,0.37,-3.66
47080,0.18,0.99,-0.18,-0.49,0.49,-3.42
47100,0.18,0.99,-0.18,-0.49,0.43,-3.23
47120,0.18,0.99,-0.18,-0.31,0.43,-2.99
47140,0.17,0.99,-0.18,-0.31,0.37,-2.75
47160,0.17,0.99,-0.18,-0.18,0.85,-1.77
47180,0.17,0.99,-0.18,-0.24,0.92,-0.79
47200,0.17,0.99,-0.19,-0.49,1.10,-0.37
47220,0.17,0.99,-0.18,-0.79,0.73,0.49
47240,0.17,0.98,-0.18,-1.16,0.43,0.67
47260,0.17,0.99,-0.18,-1.53,0.37,1.28
47280,0.16,0.99,-0.17,-1.89,-0.85,2.69
47300,0.16,0.98,-0.19,-2.69,-2.08,4.76
47320,0.15,0.99,-0.18,-5.37,-3.91,7.93
47340,0.15,1.01,-0.17,-12.08,-8.91,14.28
47360,0.18,1.01,-0.17,-21.24,-13.73,18.74
47380,0.22,0.99,-0.16,-26.00,-14.16,20.14
47400,0.25,0.97,-0.15,-23.44,-12.02,15.87
47420,0.24,0.98,-0.15,-20.26,-8.42,13.24
47440,0.24,0.99,-0.14,-18.74,-8.42,12.02
47460,0.24,1.00,-0.14,-18.55,-8.48,12.21
47480,0.24,1.01,-0.14,-16.85,-8.79,12.57
47500,0.23,1.03,-0.17,-17.21,-8.48,13.49
47520,0.26,1.02,-0.14,-17.70,-8.85,14.95
47540,0.27,0.99,-0.08,-17.46,-7.75,16.97
47560,0.26,1.00,-0.07,-16.72,-6.53,17.52
47580,0.27,1.00,-0.04,-14.77,-5.86,19.23
47600,0.29,0.99,-0.07,-12.39,-3.60,20.87
47620,0.30,0.96,-0.07,-11.66,-3.11,21.24
47640,0.31,0.95,-0.06,-10.99,-2.81,20.08
47660,0.32,0.97,-0.04,-10.25,-3.11,19.47
47680,0.33,0.94,-0.03,-8.79,-2.62,18.98
47700,0.34,0.93,-0.04,-8.00,-1.28,16.97
47720,0.35,0.93,-0.04,-7.39,-1.10,13.49
47740,0.37,0.90,-0.02,-6.16,-0.73,10.50
47760,0.41,0.78,0.02,-4.64,0.55,5.13
47780,0.39,0.81,0.04,2.50,4.03,-9.77
47800,0.29,1.09,-0.01,7.02,4.39,-11.54
47820,0.29,1.09,-0.08,8.85,4.27,-3.05
47840,0.32,1.02,-0.13,6.90,4.39,4.58
47860,0.34,0.97,-0.13,-0.31,2.14,6.65
47880,0.35,0.92,-0.06,-3.78,0.00,5.98
47900,0.32,1.02,-0.03,-4.09,-0.79,5.31
47920,0.32,1.03,-0.04,-2.08,0.79,12.76
47940,0.35,0.97,-0.06,-1.83,1.16,16.11
47960,0.35,0.97,-0.10,-3.30,1.83,16.36
47980,0.37,0.93,-0.08,-6.59,-0.31,16.72
48000,0.37,0.95,-0.07,-8.79,-1.28,15.50
48020,0.39,0.93,-0.04,-9.95,-2.14,15.32
48040,0.41,0.90,0.01,-9.03,-1.10,12.45
48060,0.41,0.90,-0.00,-6.84,0.37,9.16
48080,0.41,0.91,-0.01,-5.25,0.98,7.39
48100,0.42,0.89,-0.02,-3.36,1.77,4.27
48120,0.44,0.83,0.00,-1.89,1.59,1.59
48140,0.42,0.87,-0.01,0.18,2.38,-4.27
48160,0.40,0.95,-0.06,1.40,1.83,-6.77
48180,0.39,0.96,-0.05,1.53,1.53,-5.00
48200,0.41,0.92,-0.04,1.34,1.46,-4.88
48220,0.45,0.84,0.00,2.99,3.05,-11.23
48240,0.54,0.34,0.21,9.34,6.10,-28.63
48260,0.47,0.78,0.10,27.59,11.72,-60.42
48280,0.12,1.40,-0.12,32.84,14.65,-44.80
48300,0.24,1.17,-0.18,31.31,15.08,-25.27
48320,0.36,0.97,-0.26,26.43,11.66,-17.88
48340,0.34,0.61,-0.08,17.94,15.20,-22.83
48360,0.10,1.29,-0.28,12.70,18.25,-36.38
48380,0.23,1.22,-0.14,7.14,-0.31,-14.53
48400,0.26,1.05,-0.19,3.54,1.89,-2.87
48420,0.30,0.94,-0.18,-2.81,1.71,-0.79
48440,0.33,0.88,-0.07,-5.13,-0.43,-3.97
48460,0.38,0.72,0.01,-1.83,1.53,-12.15
48480,0.26,1.00,-0.13,8.30,7.87,-27.22
48500,0.24,1.08,-0.14,10.13,6.84,-22.89
48520,0.23,1.06,-0.17,9.64,7.14,-16.85
48540,0.27,1.00,-0.16,7.32,5.92,-12.21
48560,0.30,0.92,-0.15,5.43,6.16,-12.70
48580,0.38,0.79,-0.17,4.39,9.95,-19.78
48600,0.35,0.80,-0.30,3.85,25.39,-41.69
48620,-0.06,1.32,0.03,6.47,5.86,-29.54
48640,0.13,1.07,-0.10,3.97,-2.38,-2.44
48660,0.25,0.93,-0.22,3.54,2.32,-1.71
48680,0.22,0.97,-0.16,0.73,4.64,-4.82
48700,0.25,0.95,-0.18,2.50,5.62,-7.08
48720,0.24,0.97,-0.18,5.43,7.26,-11.60
48740,0.16,1.01,-0.15,8.30,6.90,-15.69
48760,0.13,1.03,-0.13,7.69,3.60,-11.47
48780,0.17,1.00,-0.16,5.25,1.77,-4.94
48800,0.19,0.98,-0.19,3.66,1.77,-2.56
48820,0.19,0.98,-0.19,1.89,2.26,-3.11
48840,0.19,0.98,-0.18,0.55,2.32,-3.36
48860,0.19,0.98,-0.18,-0.31,2.20,-3.66
48880,0.18,0.99,-0.18,-0.43,2.44,-3.54
48900,0.17,0.99,-0.18,-1.04,2.14,-3.23
48920,0.18,0.98,-0.18,-1.22,1.95,-2.50
48940,0.18,0.99,-0.18,-1.65,1.71,-2.32
48960,0.18,0.99,-0.18,-1.53,1.65,-2.26
48980,0.18,0.99,-0.18,-1.16,1.65,-2.14
49000,0.18,0.99,-0.18,-0.98,0.98,-2.32
49020,0.17,0.99,-0.18,-0.43,0.85,-2.32
49040,0.17,0.99,-0.18,-0.24,0.67,-1.40
49060,0.17,0.99,-0.18,-0.31,0.43,-1.10
49080,0.17,0.99,-0.18,-0.49,0.31,-0.73
49100,0.18,0.98,-0.18,-1.04,0.37,-0.55
49120,0.18,0.99,-0.18,-1.34,0.37,-0.12
49140,0.17,0.99,-0.18,-1.34,0.31,0.37
49160,0.17,0.99,-0.18,-1.71,-0.12,1.16
49180,0.18,0.98,-0.18,-1.71,-0.24,1.65
49200,0.17,0.99,-0.18,-2.38,-0.55,1.95
49220,0.17,0.99,-0.17,-2.87,-1.16,2.69
49240,0.17,0.99,-0.17,-3.17,-2.08,4.82
49260,0.18,0.99,-0.18,-3.85,-3.30,6.35
49280,0.18,0.99,-0.17,-4.88,-3.85,7.20
49300,0.18,1.00,-0.16,-7.26,-5.62,9.52
49320,0.20,0.98,-0.18,-9.70,-5.80,11.54
49340,0.19,1.01,-0.16,-12.08,-6.77,12.08
49360,0.20,1.02,-0.15,-14.40,-9.64,15.69
49380,0.23,1.00,-0.16,-14.77,-9.22,18.01
49400,0.23,1.00,-0.17,-14.53,-8.18,18.37
49420,0.20,1.07,-0.14,-13.24,-10.13,21.06
49440,0.22,1.10,-0.14,-11.23,-9.22,24.29
49460,0.27,1.03,-0.15,-8.06,-8.61,28.69
49480,0.27,1.00,-0.21,-10.99,-4.82,29.72
49500,0.29,0.96,-0.15,-13.43,-6.53,29.11
49520,0.29,0.97,-0.09,-14.47,-7.75,28.26
49540,0.31,0.95,-0.08,-13.37,-6.84,27.53
49560,0.34,0.91,-0.09,-11.78,-4.64,25.27
49580,0.34,0.91,-0.11,-11.47,-3.42,22.34
49600,0.35,0.91,-0.10,-11.90,-3.42,19.96
49620,0.36,0.90,-0.07,-12.27,-3.42,16.30
49640,0.38,0.88,-0.05,-11.84,-2.75,13.06
49660,0.41,0.82,-0.04,-11.05,-1.59,7.81
49680,0.40,0.82,-0.00,-6.16,1.34,-6.35
49700,0.34,1.01,-0.03,-1.83,1.10,-11.29
49720,0.31,1.06,-0.08,0.55,1.28,-6.53
49740,0.34,1.00,-0.14,-0.61,2.14,0.79
49760,0.36,0.95,-0.11,-3.54,0.92,1.89
49780,0.37,0.92,-0.07,-4.88,0.31,1.10
49800,0.37,0.95,-0.03,-1.28,0.67,-3.05
49820,0.32,1.05,-0.07,0.18,0.85,-1.83
49840,0.35,1.00,-0.06,1.40,0.55,2.62
49860,0.35,0.96,-0.08,1.77,1.22,4.46
49880,0.37,0.90,-0.07,1.89,2.69,2.62
49900,0.39,0.89,-0.08,2.08,2.26,-0.18
49920,0.42,0.75,0.03,4.03,2.81,-10.80
49940,0.29,1.05,-0.08,8.91,6.04,-16.11
49960,0.30,1.07,-0.11,8.85,4.52,-9.22
49980,0.33,1.02,-0.14,6.90,3.78,-3.17
50000,0.34,0.96,-0.14,1.34,2.93,0.24
50020,0.36,0.91,-0.12,-0.92,1.22,-0.55
50040,0.38,0.83,-0.05,-1.59,0.49,-4.33
50060,0.33,0.96,-0.05,1.53,2.26,-12.27
50080,0.32,1.03,-0.06,4.03,2.20,-10.80
50100,0.32,1.00,-0.08,5.74,3.48,-7.45
50120,0.33,0.96,-0.13,5.92,5.00,-5.92
50140,0.34,0.92,-0.12,4.52,4.70,-6.84
50160,0.33,0.93,-0.12,4.03,3.97,-9.03
50180,0.29,1.03,-0.15,1.46,1.95,-7.26
50200,0.31,1.00,-0.12,-0.61,0.85,-3.30
50220,0.32,0.96,-0.10,-1.40,0.98,-1.89
50240,0.34,0.91,-0.08,0.06,1.95,-4.82
50260,0.37,0.84,-0.07,2.01,3.60,-10.01
50280,0.37,0.77,-0.01,6.04,6.04,-18.31
50300,0.29,1.00,-0.09,12.82,10.80,-26.25
50320,0.26,1.07,-0.12,13.79,9.58,-20.75
50340,0.28,1.00,-0.19,14.10,10.93,-16.85
50360,0.29,0.94,-0.23,10.07,11.47,-18.19
50380,0.22,1.00,-0.22,0.67,11.47,-23.13
50400,0.10,1.25,-0.20,-4.82,3.85,-15.75
50420,0.20,1.11,-0.10,-6.65,-4.52,0.98
50440,0.29,0.91,-0.17,-4.94,-2.50,5.80
50460,0.31,0.89,-0.13,-5.92,-1.71,1.83
50480,0.32,0.87,-0.07,-4.33,-0.24,-4.33
50500,0.30,0.91,-0.15,1.28,6.59,-15.99
50520,0.32,0.91,-0.17,2.32,9.16,-21.36
50540,0.39,0.80,-0.17,2.44,15.08,-29.66
50560,0.10,1.14,-0.21,10.74,30.64,-47.85
50580,-0.17,1.28,0.06,12.45,13.61,-28.32
50600,0.19,1.02,-0.12,7.02,-7.75,-1.40
50620,0.20,0.98,-0.16,5.07,5.98,-0.31
50640,0.23,0.97,-0.16,5.31,6.16,-2.01
50660,0.23,0.96,-0.18,5.74,4.27,-4.27
50680,0.18,0.99,-0.17,4.33,4.88,-6.47
50700,0.14,1.01,-0.15,2.44,1.77,-0.98
50720,0.21,0.98,-0.18,0.43,-1.28,2.62
50740,0.21,0.97,-0.18,-15.50,-0.12,1.40
50760,0.21,0.97,-0.18,-0.61,0.12,-0.85
50780,0.21,0.98,-0.17,-1.65,0.67,-2.26
50800,0.21,0.98,-0.17,-1.77,1.16,-3.97
50820,0.20,0.98,-0.18,-1.10,1.46,-5.07
50840,0.20,0.99,-0.17,-0.55,1.22,-5.80
50860,0.19,0.99,-0.17,0.06,0.55,-6.10
50880,0.19,0.99,-0.17,0.31,0.85,-5.86
50900,0.18,0.99,-0.17,0.06,1.16,-5.49
50920,0.18,0.99,-0.17,0.18,0.92,-4.52
50940,0.18,0.99,-0.17,0.06,0.73,-2.08
50960,0.18,0.98,-0.18,0.06,1.04,-1.22
50980,0.18,0.99,-0.17,0.00,0.85,-0.85
51000,0.18,0.99,-0.17,0.24,0.92,0.00
51020,0.19,0.98,-0.18,0.06,0.79,0.49
51040,0.18,0.98,-0.18,-0.24,0.98,0.24
51060,0.18,0.98,-0.17,-0.92,0.79,0.55
51080,0.19,0.99,-0.18,-1.53,0.00,1.89
51100,0.19,0.99,-0.18,-1.71,-0.24,2.01
51120,0.20,0.98,-0.18,-1.83,-0.31,1.65
51140,0.20,0.98,-0.18,-1.83,-0.24,1.16
51160,0.18,0.99,-0.17,-2.14,0.24,0.55
51180,0.19,0.98,-0.17,-2.26,-0.43,1.46
51200,0.20,0.98,-0.17,-2.56,-1.04,1.89
51220,0.20,0.98,-0.17,-2.62,-0.98,1.83
51240,0.20,0.99,-0.17,-2.69,-0.92,1.89
51260,0.20,0.98,-0.17,-2.08,-0.49,1.65
51280,0.20,0.98,-0.17,-1.83,-0.12,1.22
51300,0.20,0.98,-0.17,-1.28,0.24,0.79
51320,0.19,0.99,-0.16,-1.10,-0.12,1.46
51340,0.20,0.99,-0.17,-0.85,-0.43,2.20
51360,0.20,0.99,-0.17,-1.34,-0.61,2.38
51380,0.19,0.99,-0.17,-2.81,-1.16,3.30
51400,0.19,1.00,-0.17,-4.03,-1.53,4.64
51420,0.19,1.00,-0.16,-4.76,-2.38,6.90
51440,0.17,1.03,-0.16,-6.16,-4.52,11.84
51460,0.16,1.07,-0.14,-8.36,-7.39,17.46
51480,0.16,1.13,-0.18,-10.19,-10.25,25.70
51500,0.24,1.03,-0.22,-11.84,-12.94,32.17
51520,0.31,0.97,-0.20,-10.01,-11.41,31.31
51540,0.31,0.93,-0.19,-11.84,-9.58,28.38
51560,0.31,0.91,-0.15,-14.47,-9.34,22.28
51580,0.32,0.90,-0.08,-13.49,-7.39,18.07
51600,0.32,0.92,-0.07,-10.99,-5.49,13.85
51620,0.31,0.95,-0.07,-8.36,-3.54,10.80
51640,0.30,0.99,-0.12,-6.29,-1.46,10.74
51660,0.29,1.03,-0.16,-6.90,-1.77,13.06
51680,0.30,1.02,-0.16,-8.97,-3.30,16.97
51700,0.33,0.96,-0.13,-13.00,-4.33,20.14
51720,0.34,0.93,-0.10,-14.28,-4.82,19.59
51740,0.36,0.91,-0.07,-13.55,-4.82,18.43
51760,0.38,0.88,-0.03,-10.13,-3.54,13.49
51780,0.39,0.88,-0.03,-7.08,-2.08,9.03
51800,0.42,0.83,-0.03,-4.21,-0.06,3.85
51820,0.43,0.72,0.01,2.38,3.66,-11.90
51840,0.39,0.90,-0.01,7.69,5.62,-24.05
51860,0.28,1.12,-0.11,10.74,6.29,-24.17
51880,0.30,1.08,-0.20,8.06,6.10,-10.25
51900,0.32,1.03,-0.24,1.95,2.50,-3.78
51920,0.33,0.98,-0.14,-3.97,-0.31,-0.55
51940,0.35,0.90,-0.04,-4.46,-0.79,-2.01
51960,0.32,0.97,-0.06,-1.04,1.59,-4.58
51980,0.31,1.03,-0.11,0.85,1.22,-2.75
52000,0.32,1.00,-0.13,-0.06,0.06,2.08
52020,0.33,0.97,-0.14,-1.83,-0.06,2.32
52040,0.36,0.90,-0.08,-2.81,-1.16,1.83
52060,0.37,0.87,-0.03,-1.22,0.00,-5.37
52080,0.34,0.93,-0.05,3.97,3.54,-10.25
52100,0.31,0.99,-0.11,6.65,4.15,-11.11
52120,0.31,1.00,-0.13,5.86,3.78,-8.85
52140,0.32,0.97,-0.16,2.20,2.81,-6.77
52160,0.33,0.94,-0.13,-0.24,1.10,-7.14
52180,0.34,0.91,-0.08,-0.79,0.98,-8.79
52200,0.31,0.93,-0.06,2.32,4.03,-15.08
52220,0.25,1.07,-0.11,3.85,4.21,-14.47
52240,0.28,1.04,-0.14,3.23,3.36,-8.61
52260,0.30,0.98,-0.16,0.43,1.95,-5.31
52280,0.30,0.95,-0.13,-1.65,1.04,-5.55
52300,0.31,0.92,-0.09,-1.59,0.85,-7.32
52320,0.32,0.94,-0.09,0.98,2.93,-11.66
52340,0.28,0.99,-0.10,2.69,3.66,-12.33
52360,0.28,0.99,-0.13,3.54,4.76,-11.29
52380,0.28,0.97,-0.14,2.99,4.21,-11.23
52400,0.30,0.93,-0.13,2.44,4.52,-12.70
52420,0.35,0.85,-0.10,3.66,6.90,-17.15
52440,0.47,0.61,-0.07,6.04,23.99,-41.14
52460,-0.22,1.45,-0.28,4.33,27.95,-41.02
52480,0.12,1.22,0.05,-2.44,-9.77,-3.23
52500,0.29,0.91,-0.22,1.77,-1.89,8.79
52520,0.25,0.96,-0.11,-3.85,-0.79,1.65
52540,0.29,0.92,-0.11,-1.65,1.89,-0.18
52560,0.26,0.95,-0.16,1.04,5.00,-6.10
52580,0.23,0.99,-0.14,1.04,6.16,-8.73
52600,0.24,0.99,-0.14,1.65,6.23,-8.73
52620,0.24,0.98,-0.15,2.20,6.90,-9.95
52640,0.23,0.97,-0.16,4.94,9.52,-13.37
52660,0.14,1.02,-0.16,6.71,12.45,-11.78
52680,0.16,1.03,-0.11,5.74,3.97,-7.08
52700,0.22,0.97,-0.17,3.97,5.19,-1.89
52720,0.24,0.98,-0.15,3.17,4.27,-3.78
52740,0.24,0.97,-0.16,3.36,5.00,-5.13
52760,0.19,0.99,-0.13,4.70,5.86,-7.81
52780,0.17,1.00,-0.15,4.03,3.23,-3.60
52800,0.20,0.99,-0.16,2.08,2.20,-0.98
52820,0.21,0.98,-0.17,1.71,2.14,-1.53
52840,0.21,0.98,-0.17,1.53,2.32,-2.56
52860,0.20,0.98,-0.17,1.34,2.44,-3.36
52880,0.20,0.98,-0.17,0.92,2.20,-3.54
52900,0.18,0.99,-0.17,1.04,1.28,-2.75
52920,0.19,0.98,-0.17,0.49,0.55,-1.46
52940,0.19,0.98,-0.17,-0.12,0.49,-1.28
52960,0.20,0.98,-0.18,-0.06,0.55,-1.28
52980,0.20,0.98,-0.18,-0.18,1.10,-1.53
53000,0.19,0.99,-0.17,-0.24,1.04,-1.77
53020,0.19,0.99,-0.17,-0.06,1.16,-1.34
53040,0.19,0.99,-0.17,0.37,1.10,-0.85
53060,0.19,0.98,-0.17,0.18,0.98,-0.37
53080,0.19,0.98,-0.18,-0.31,0.55,0.06
53100,0.20,0.98,-0.18,-0.85,0.67,0.18
53120,0.19,0.98,-0.18,-1.16,0.49,0.43
53140,0.19,0.98,-0.18,-1.95,0.18,0.85
53160,0.19,0.98,-0.17,-2.56,0.18,0.98
53180,0.19,0.98,-0.18,-2.99,0.00,1.04
53200,0.19,0.99,-0.17,-4.27,-1.04,1.46
53220,0.17,1.00,-0.16,-4.94,-1.77,2.32
53240,0.16,1.01,-0.15,-5.86,-3.66,4.76
53260,0.16,1.03,-0.15,-7.14,-8.73,12.70
53280,0.16,1.06,-0.16,-11.41,-9.34,17.82
53300,0.17,1.08,-0.19,-12.82,-11.96,24.29
53320,0.23,1.03,-0.18,-13.67,-12.57,29.05
53340,0.26,1.00,-0.18,-9.64,-8.85,27.77
53360,0.28,0.97,-0.18,-8.91,-7.45,26.92
53380,0.29,0.93,-0.15,-9.95,-7.14,24.29
53400,0.30,0.91,-0.11,-10.13,-5.98,19.04
53420,0.31,0.91,-0.09,-8.48,-4.70,15.26
53440,0.31,0.91,-0.08,-7.20,-3.48,11.96
53460,0.29,1.00,-0.14,-7.08,-2.20,10.80
53480,0.30,1.00,-0.16,-8.79,-2.26,12.39
53500,0.30,1.00,-0.17,-11.66,-3.05,13.73
53520,0.33,0.92,-0.11,-15.99,-4.46,14.04
53540,0.34,0.90,-0.05,-15.32,-4.52,10.93
53560,0.32,0.97,-0.04,-12.08,-3.17,9.03
53580,0.32,1.00,-0.09,-9.28,-1.95,11.60
53600,0.32,1.03,-0.13,-9.64,-2.20,14.95
53620,0.34,0.99,-0.13,-12.51,-2.69,17.70
53640,0.35,0.94,-0.09,-15.20,-3.85,17.40
53660,0.37,0.92,-0.04,-14.47,-3.78,15.69
53680,0.38,0.92,-0.03,-12.45,-3.36,13.79
53700,0.38,0.90,-0.01,-9.34,-2.50,10.99
53720,0.38,0.94,-0.02,-5.74,-1.22,9.28
53740,0.38,0.94,-0.03,-4.52,-0.55,8.73
53760,0.39,0.94,-0.06,-3.97,0.06,8.18
53780,0.40,0.93,-0.08,-4.88,0.00,7.51
53800,0.43,0.85,-0.05,-5.37,-0.73,5.19
53820,0.44,0.80,0.01,-4.27,-0.61,0.24
53840,0.44,0.75,0.09,2.62,1.53,-13.31
53860,0.40,0.91,0.03,9.34,4.03,-22.71
53880,0.33,1.06,-0.09,13.31,5.07,-22.09
53900,0.33,1.06,-0.16,8.97,4.88,-11.41
53920,0.36,0.98,-0.12,4.27,2.14,-6.53
53940,0.41,0.88,-0.06,2.26,2.26,-6.77
53960,0.50,0.35,0.22,8.91,5.80,-26.31
53980,0.24,1.13,-0.11,22.34,16.30,-49.32
54000,0.19,1.37,-0.13,21.97,5.00,-33.69
54020,0.26,1.14,-0.25,12.57,7.32,-7.51
54040,0.30,1.01,-0.22,5.25,3.60,-3.78
54060,0.33,0.94,-0.12,-0.73,1.22,-1.83
54080,0.37,0.81,-0.07,-0.73,1.59,-9.16
54100,0.28,0.98,-0.09,4.39,6.35,-19.65
54120,0.25,1.12,-0.12,5.80,2.44,-15.38
54140,0.29,1.01,-0.11,6.04,2.20,-6.29
54160,0.31,0.94,-0.11,4.94,3.23,-7.51
54180,0.32,0.91,-0.11,4.58,4.46,-9.83
54200,0.35,0.81,-0.11,4.82,5.74,-14.65
54220,0.24,1.02,-0.15,9.58,13.00,-29.30
54240,0.19,1.18,-0.18,10.50,7.93,-21.97
54260,0.22,1.09,-0.19,7.63,5.68,-9.77
54280,0.27,0.96,-0.16,3.78,4.46,-5.55
54300,0.25,0.99,-0.19,0.55,4.64,-6.65
54320,0.28,0.93,-0.15,-1.95,2.26,-7.14
54340,0.26,0.98,-0.12,1.89,7.81,-14.28
54360,0.19,1.07,-0.16,4.46,7.26,-12.51
54380,0.22,1.02,-0.15,3.36,3.30,-6.65
54400,0.24,0.96,-0.17,1.59,2.75,-5.49
54420,0.26,0.95,-0.16,0.00,2.87,-6.90
54440,0.28,0.93,-0.17,-0.79,3.85,-9.64
54460,0.32,0.88,-0.15,0.31,10.93,-20.39
54480,0.10,1.10,-0.16,7.02,14.28,-25.27
54500,0.11,1.14,-0.05,6.16,2.87,-13.37
54520,0.23,0.99,-0.14,2.62,0.61,-1.65
54540,0.22,0.97,-0.17,0.37,2.01,-3.05
54560,0.22,0.97,-0.16,0.31,2.75,-3.91
54580,0.22,0.98,-0.16,1.22,3.05,-5.00
54600,0.23,0.97,-0.17,2.32,3.66,-6.84
54620,0.23,0.97,-0.17,3.85,6.04,-9.52
54640,0.18,1.00,-0.15,5.19,7.08,-11.90
54660,0.15,1.01,-0.15,3.42,2.50,-6.23
54680,0.20,0.98,-0.18,1.71,0.98,-1.71
54700,0.20,0.98,-0.18,0.85,1.71,-1.71
54720,0.19,0.98,-0.18,0.31,2.14,-2.56
54740,0.19,0.98,-0.18,-0.06,2.20,-2.93
54760,0.19,0.98,-0.18,-0.24,2.44,-3.17
54780,0.18,0.99,-0.17,-0.37,1.71,-2.69
54800,0.17,0.99,-0.17,-0.37,1.16,-1.83
54820,0.19,0.98,-0.18,-0.37,0.31,-0.55
54840,0.19,0.98,-0.18,-0.55,0.79,-0.67
54860,0.19,0.98,-0.18,-0.43,0.92,-1.04
54880,0.19,0.99,-0.17,-0.37,1.16,-1.10
54900,0.18,0.99,-0.17,-0.37,0.18,-0.55
54920,0.19,0.98,-0.18,-0.61,0.12,0.12
54940,0.19,0.98,-0.17,-1.34,0.00,0.18
54960,0.18,0.99,-0.18,-1.53,-0.18,0.61
54980,0.19,0.98,-0.18,-1.77,-0.61,1.28
55000,0.19,0.98,-0.18,-2.20,-0.67,1.59
55020,0.19,0.98,-0.18,-2.50,-0.79,1.65
55040,0.18,0.99,-0.17,-3.48,-1.53,2.26
55060,0.18,1.00,-0.16,-3.97,-2.44,3.48
55080,0.18,1.00,-0.16,-4.64,-3.91,5.74
55100,0.18,1.01,-0.17,-6.35,-5.92,9.52
55120,0.19,1.01,-0.16,-8.42,-7.63,12.88
55140,0.20,1.01,-0.17,-9.89,-8.67,15.38
55160,0.23,1.00,-0.16,-10.13,-8.36,17.09
55180,0.21,1.02,-0.18,-10.25,-8.06,17.46
55200,0.24,1.01,-0.16,-11.47,-9.77,18.37
55220,0.28,0.98,-0.17,-11.72,-8.79,18.74
55240,0.29,0.94,-0.18,-12.02,-7.45,17.15
55260,0.28,0.96,-0.15,-12.76,-6.90,14.59
55280,0.27,0.97,-0.13,-13.67,-7.14,13.12
55300,0.28,0.97,-0.11,-13.67,-6.29,12.27
55320,0.28,0.97,-0.11,-13.79,-5.00,11.78
55340,0.29,0.98,-0.11,-13.31,-3.85,11.78
55360,0.29,0.99,-0.11,-13.92,-3.85,12.33
55380,0.29,0.98,-0.09,-14.10,-4.39,13.18
55400,0.31,0.97,-0.07,-13.79,-4.27,13.92
55420,0.31,0.97,-0.06,-11.96,-3.17,13.61
55440,0.32,0.96,-0.07,-10.86,-2.44,13.43
55460,0.33,0.96,-0.07,-10.19,-2.26,13.12
55480,0.32,0.94,-0.08,-10.44,-2.26,12.33
55500,0.34,0.95,-0.06,-10.62,-1.77,11.41
55520,0.34,0.95,-0.03,-9.95,-2.26,10.68
55540,0.35,0.94,-0.03,-8.00,-0.79,9.16
55560,0.35,0.95,-0.05,-6.59,-0.18,8.30
55580,0.35,0.96,-0.05,-6.35,0.06,8.12
55600,0.36,0.95,-0.06,-6.53,-0.06,7.45
55620,0.37,0.94,-0.05,-6.96,-0.12,6.65
55640,0.37,0.93,-0.04,-6.96,-0.12,5.13
55660,0.36,0.96,-0.02,-4.52,0.00,3.48
55680,0.36,0.97,-0.02,-3.11,0.67,4.70
55700,0.37,0.96,-0.05,-2.32,1.28,5.62
55720,0.38,0.94,-0.05,-2.44,1.22,5.25
55740,0.39,0.89,-0.04,-2.26,1.28,2.93
55760,0.39,0.90,-0.02,-0.67,0.61,0.98
55780,0.39,0.91,-0.01,0.85,1.10,-3.30
55800,0.38,0.94,-0.02,3.54,2.14,-5.19
55820,0.38,0.93,0.00,5.68,2.87,-6.16
55840,0.38,0.92,-0.04,7.51,4.27,-7.63
55860,0.37,0.93,-0.06,8.06,3.85,-9.22
55880,0.36,0.95,-0.09,7.14,4.27,-10.44
55900,0.36,0.95,-0.08,5.49,3.23,-11.23
55920,0.36,0.93,-0.03,5.07,2.93,-12.63
55940,0.36,0.93,-0.01,7.39,3.97,-14.16
55960,0.34,0.93,-0.03,10.74,5.98,-15.93
55980,0.36,0.89,-0.06,15.08,8.24,-18.80
56000,0.37,0.86,-0.10,15.08,9.58,-23.38
56020,0.36,0.84,-0.06,15.20,9.77,-29.97
56040,0.22,1.13,-0.14,16.42,10.80,-33.02
56060,0.23,1.11,-0.12,15.81,7.81,-22.71
56080,0.29,0.99,-0.16,13.67,9.09,-15.81
56100,0.33,0.89,-0.18,7.81,11.60,-20.69
56120,0.34,0.87,-0.10,4.94,13.98,-31.74
56140,0.11,1.23,-0.25,5.49,17.52,-32.96
56160,0.11,1.24,-0.15,0.92,-0.12,-4.03
56180,0.26,0.97,-0.15,0.06,-0.92,2.14
56200,0.26,0.95,-0.16,-1.28,0.98,0.92
56220,0.28,0.93,-0.12,-2.69,0.37,-3.97
56240,0.33,0.86,-0.11,0.37,3.42,-9.22
56260,0.33,0.86,-0.14,3.78,9.95,-19.53
56280,0.12,1.09,-0.22,6.10,15.38,-25.21
56300,0.15,1.09,-0.07,4.21,0.31,-8.12
56320,0.21,0.99,-0.18,3.72,0.06,-1.77
56340,0.25,0.96,-0.15,-1.04,0.43,-1.71
56360,0.26,0.94,-0.16,-0.61,3.91,-5.62
56380,0.28,0.92,-0.18,1.59,6.41,-11.17
56400,0.13,1.03,-0.17,6.16,9.28,-16.66
56420,0.16,1.04,-0.11,1.34,-2.20,-3.11
56440,0.23,0.96,-0.18,-0.24,-1.22,0.73
56460,0.21,0.98,-0.16,-0.79,1.40,-0.79
56480,0.21,0.99,-0.15,0.61,1.65,-1.71
56500,0.21,0.98,-0.15,1.53,1.89,-2.44
56520,0.21,0.98,-0.16,2.62,2.69,-2.87
56540,0.22,0.98,-0.16,2.62,3.54,-4.88
56560,0.23,0.97,-0.18,3.42,5.37,-7.26
56580,0.19,0.99,-0.16,4.03,6.04,-9.58
56600,0.14,1.01,-0.15,2.50,1.89,-5.31
56620,0.20,0.98,-0.17,0.31,0.79,-1.59
56640,0.20,0.98,-0.17,-0.24,1.40,-1.53
56660,0.20,0.98,-0.17,-0.31,2.01,-2.69
56680,0.20,0.98,-0.17,-0.06,1.89,-3.11
56700,0.19,0.99,-0.17,0.18,1.89,-3.48
56720,0.19,0.99,-0.17,-0.24,1.53,-3.36
56740,0.19,0.99,-0.17,0.49,1.59,-3.60
56760,0.18,0.99,-0.17,0.67,1.46,-3.48
56780,0.17,0.99,-0.17,0.55,0.98,-2.38
56800,0.19,0.99,-0.17,-0.18,0.24,0.06
56820,0.19,0.98,-0.18,-0.43,0.24,0.31
56840,0.19,0.98,-0.18,-0.67,0.43,0.06
56860,0.18,0.98,-0.17,-1.22,0.55,0.06
56880,0.17,0.99,-0.17,-1.40,0.18,0.79
56900,0.18,0.99,-0.17,-2.01,-1.04,1.95
56920,0.19,0.99,-0.18,-2.20,-1.16,2.32
56940,0.19,0.99,-0.17,-2.38,-1.34,2.38
56960,0.17,1.00,-0.17,-3.23,-1.95,2.93
56980,0.18,1.00,-0.16,-5.07,-3.97,5.80
57000,0.21,0.98,-0.17,-6.35,-4.76,7.14
57020,0.21,0.98,-0.17,-7.63,-4.09,6.71
57040,0.21,0.98,-0.16,-7.69,-3.42,4.94
57060,0.20,1.00,-0.15,-7.14,-3.42,5.19
57080,0.21,0.99,-0.15,-7.39,-4.21,6.41
57100,0.21,0.99,-0.15,-7.20,-3.48,6.90
57120,0.21,0.99,-0.16,-7.81,-3.42,7.39
57140,0.22,0.99,-0.15,-8.36,-3.72,8.12
57160,0.21,1.02,-0.14,-8.54,-4.15,9.16
57180,0.22,1.01,-0.15,-8.79,-5.62,13.00
57200,0.23,1.01,-0.16,-9.77,-6.10,14.83
57220,0.24,1.02,-0.18,-11.60,-6.65,16.66
57240,0.26,1.02,-0.17,-14.10,-8.42,20.75
57260,0.26,1.01,-0.15,-16.05,-8.36,22.89
57280,0.28,0.99,-0.12,-17.27,-8.54,23.93
57300,0.30,0.95,-0.11,-18.43,-7.26,23.44
57320,0.31,0.93,-0.08,-18.25,-6.71,21.36
57340,0.31,0.94,-0.05,-17.21,-5.68,19.17
57360,0.31,0.96,-0.04,-13.79,-3.72,16.78
57380,0.32,0.96,-0.05,-11.66,-2.50,16.72
57400,0.33,0.96,-0.07,-10.19,-2.20,16.36
57420,0.34,0.96,-0.07,-9.28,-2.08,15.56
57440,0.34,0.96,-0.04,-8.67,-2.08,15.08
57460,0.35,0.95,-0.03,-7.51,-1.71,15.26
57480,0.36,0.92,-0.05,-6.10,-1.04,13.92
57500,0.37,0.92,-0.05,-5.31,-0.79,11.84
57520,0.37,0.93,-0.05,-5.13,-0.92,10.07
57540,0.37,0.95,-0.04,-5.07,-0.79,9.28
57560,0.38,0.93,-0.05,-5.13,-0.61,8.06
57580,0.38,0.92,-0.03,-5.00,-0.12,6.53
57600,0.38,0.95,-0.03,-4.46,-0.24,5.31
57620,0.39,0.94,-0.04,-4.09,0.12,5.00
57640,0.38,0.95,-0.04,-4.15,-0.06,4.46
57660,0.38,0.97,-0.05,-4.70,0.00,4.88
57680,0.39,0.97,-0.04,-5.13,-0.06,7.08
57700,0.40,0.94,-0.04,-5.07,0.49,8.18
57720,0.41,0.92,-0.03,-4.94,0.18,7.81
57740,0.42,0.89,-0.00,-3.36,0.06,5.07
57760,0.43,0.86,0.01,-1.22,0.37,2.38
57780,0.42,0.88,0.00,0.92,0.92,-1.46
57800,0.40,0.93,-0.03,2.69,1.40,-4.39
57820,0.39,0.96,-0.04,2.38,1.34,-4.09
57840,0.40,0.95,-0.05,1.46,1.65,-3.30
57860,0.40,0.93,-0.04,0.92,1.46,-3.48
57880,0.40,0.93,-0.03,0.55,1.77,-4.52
57900,0.40,0.92,-0.04,0.49,1.53,-5.43
57920,0.41,0.90,-0.03,1.04,1.53,-8.54
57940,0.42,0.86,-0.00,2.56,2.01,-12.76
57960,0.42,0.84,0.03,5.98,3.42,-18.74
57980,0.39,0.90,-0.00,10.25,4.88,-24.84
58000,0.35,1.00,-0.05,14.47,5.19,-24.05
58020,0.35,0.97,-0.11,13.18,6.84,-21.79
58040,0.39,0.89,-0.11,10.62,6.47,-22.58
58060,0.43,0.67,0.08,12.39,8.73,-38.21
58080,0.19,1.17,-0.14,18.31,13.98,-48.22
58100,0.23,1.21,-0.08,18.19,3.72,-32.78
58120,0.28,1.05,-0.17,15.87,7.69,-15.32
58140,0.34,0.93,-0.20,10.31,9.89,-14.22
58160,0.44,0.62,-0.04,8.73,10.07,-22.83
58180,0.40,1.14,-0.22,17.03,25.63,-53.28
58200,-0.04,1.49,-0.28,15.87,21.00,-40.89
58220,0.13,1.18,-0.14,7.57,3.23,-11.05
58240,0.23,1.01,-0.19,4.21,2.32,-0.73
58260,0.28,0.93,-0.13,0.92,2.50,-2.14
58280,0.41,0.80,-0.12,0.85,5.80,-10.68
58300,0.36,0.89,-0.26,5.98,26.73,-33.69
58320,-0.15,1.26,-0.00,16.11,11.23,-22.16
58340,0.22,1.02,-0.13,6.16,-6.90,2.08
58360,0.23,0.95,-0.21,2.08,0.18,2.81
58380,0.23,0.98,-0.13,-0.67,-0.92,0.43
58400,0.24,0.95,-0.18,2.01,2.38,-1.53
58420,0.23,0.97,-0.18,1.34,3.97,-4.33
58440,0.26,0.95,-0.18,1.59,5.00,-9.52
58460,0.22,0.98,-0.17,4.39,7.51,-14.77
58480,0.12,1.03,-0.14,5.86,6.96,-15.44
58500,0.18,1.00,-0.16,1.16,0.06,-4.03
58520,0.20,0.98,-0.17,-0.43,1.46,-1.71
58540,0.19,0.99,-0.17,-0.12,2.14,-2.38
58560,0.19,0.99,-0.17,0.37,2.26,-2.87
58580,0.19,0.98,-0.17,0.55,1.95,-2.81
58600,0.20,0.99,-0.17,0.43,2.26,-2.99
58620,0.19,0.98,-0.17,1.04,3.05,-4.15
58640,0.17,0.99,-0.16,1.46,2.32,-4.03
58660,0.17,0.99,-0.17,1.65,1.65,-2.32
58680,0.18,0.99,-0.18,0.79,0.79,-0.73
58700,0.19,0.98,-0.18,0.06,1.04,-0.92
58720,0.19,0.98,-0.18,-0.31,0.98,-1.46
58740,0.18,0.98,-0.18,-0.43,0.98,-1.95
58760,0.18,0.99,-0.18,-0.61,1.16,-2.20
58780,0.17,0.99,-0.17,-0.61,0.92,-1.77
58800,0.18,0.99,-0.18,-0.79,0.49,-0.79
58820,0.19,0.98,-0.18,-1.40,0.18,0.24
58840,0.18,0.99,-0.18,-0.98,0.37,0.00
58860,0.18,0.99,-0.18,-1.59,0.37,-0.06
58880,0.18,0.99,-0.17,-1.65,0.43,0.18
58900,0.18,0.99,-0.18,-1.46,0.00,1.16
58920,0.18,0.98,-0.18,-1.59,-0.24,1.59
58940,0.18,0.99,-0.17,-2.20,-0.92,2.08
58960,0.19,0.99,-0.17,-2.38,-1.04,2.20
58980,0.18,0.99,-0.17,-2.44,-0.73,2.20
59000,0.18,1.00,-0.17,-2.87,-1.40,3.05
59020,0.19,0.98,-0.17,-4.03,-2.75,4.27
59040,0.19,0.99,-0.17,-4.58,-2.81,4.39
59060,0.20,0.99,-0.17,-5.74,-3.60,5.74
59080,0.19,1.00,-0.16,-6.90,-4.03,6.71
59100,0.20,0.99,-0.16,-8.30,-4.46,8.12
59120,0.19,1.00,-0.16,-9.52,-5.98,10.13
59140,0.21,1.00,-0.15,-9.95,-6.35,11.72
59160,0.21,1.01,-0.16,-10.38,-6.23,13.43
59180,0.23,0.99,-0.15,-10.86,-6.71,14.65
59200,0.23,1.00,-0.15,-10.25,-6.77,15.20
59220,0.22,1.03,-0.15,-9.77,-6.41,16.48
59240,0.24,1.04,-0.16,-10.13,-7.87,19.10
59260,0.27,1.00,-0.18,-9.83,-6.84,22.09
59280,0.26,1.01,-0.16,-12.39,-6.35,22.52
59300,0.27,0.99,-0.12,-13.55,-6.96,23.32
59320,0.29,0.97,-0.11,-14.16,-6.77,24.11
59340,0.31,0.95,-0.10,-14.59,-6.23,23.93
59360,0.32,0.93,-0.11,-14.22,-5.31,22.16
59380,0.32,0.95,-0.07,-13.06,-4.76,18.92
59400,0.33,0.97,-0.06,-11.84,-4.39,18.55
59420,0.33,0.96,-0.07,-10.50,-3.36,18.86
59440,0.34,0.96,-0.09,-10.07,-2.20,18.07
59460,0.36,0.93,-0.08,-10.50,-2.44,17.88
59480,0.36,0.93,-0.07,-10.80,-2.20,16.42
59500,0.37,0.93,-0.04,-10.01,-2.14,14.59
59520,0.37,0.94,-0.05,-9.03,-1.83,14.10
59540,0.39,0.92,-0.06,-9.03,-1.46,13.37
59560,0.40,0.91,-0.06,-8.91,-1.10,10.25
59580,0.40,0.89,-0.03,-8.85,-1.04,7.69
59600,0.40,0.90,-0.02,-7.93,-0.61,4.76
59620,0.40,0.92,-0.02,-6.29,-0.12,2.75
59640,0.41,0.91,-0.02,-3.54,0.73,1.71
59660,0.40,0.93,-0.03,-1.53,1.46,0.18
59680,0.40,0.93,-0.03,-0.12,1.34,-0.61
59700,0.39,0.95,-0.04,0.49,1.34,-0.61
59720,0.39,0.96,-0.06,0.18,1.40,0.06
59740,0.39,0.96,-0.06,-0.79,0.73,1.04
59760,0.39,0.95,-0.06,-2.56,0.31,2.44
59780,0.40,0.95,-0.05,-3.66,0.24,3.05
59800,0.41,0.91,-0.03,-4.15,-0.18,2.69
59820,0.42,0.88,-0.01,-2.81,0.61,0.61
59840,0.43,0.86,0.00,-0.37,1.59,-3.30
59860,0.44,0.86,0.00,2.26,2.20,-8.36
59880,0.47,0.76,0.09,7.93,5.25,-21.18
59900,0.40,0.88,-0.01,15.32,8.06,-35.71
59920,0.28,1.13,-0.09,16.97,7.57,-35.40
59940,0.32,1.07,-0.13,13.18,8.12,-21.48
59960,0.36,0.98,-0.12,9.70,5.43,-17.15
59980,0.41,0.79,-0.08,7.51,6.96,-18.62
60000,0.37,0.88,-0.03,9.22,7.39,-30.88
60020,0.25,1.21,-0.09,8.18,0.31,-16.11
60040,0.26,1.11,-0.15,5.92,3.30,-2.44
60060,0.33,0.96,-0.13,4.03,0.55,2.20
60080,0.38,0.87,-0.05,2.38,1.89,-0.85
60100,0.42,0.65,0.00,6.23,5.25,-10.07
60120,0.37,0.75,0.00,12.88,9.83,-26.73
60140,0.23,1.16,-0.12,16.91,6.10,-26.67
60160,0.26,1.06,-0.18,14.71,7.87,-15.99
60180,0.30,0.98,-0.15,12.21,6.04,-13.67
60200,0.36,0.83,-0.16,8.00,9.83,-17.94
60220,0.49,0.56,-0.04,6.96,13.24,-32.78
60240,0.07,1.34,-0.39,7.26,29.30,-47.30
60260,0.03,1.24,-0.03,-2.62,-3.60,-8.61
60280,0.25,0.99,-0.13,1.83,-1.28,2.38
60300,0.27,0.92,-0.18,1.28,1.83,2.01
60320,0.27,0.93,-0.16,-2.93,2.08,-2.87
60340,0.28,0.94,-0.15,-2.32,2.81,-6.53
60360,0.34,0.87,-0.13,-1.34,4.52,-11.96
60380,0.35,0.87,-0.18,2.62,20.14,-28.87
60400,0.01,1.17,-0.09,12.21,12.15,-26.06
60420,0.16,1.10,-0.03,6.84,-0.06,-7.45
60440,0.23,0.96,-0.20,5.86,-0.85,-15.08
60460,0.21,0.98,-0.16,1.22,2.81,-1.95
60480,0.24,0.96,-0.16,1.40,4.09,-2.87
60500,0.25,0.96,-0.17,3.72,5.37,-6.04
60520,0.21,0.97,-0.19,6.59,8.42,-12.76
60540,0.15,1.02,-0.15,5.55,6.77,-13.67
60560,0.16,1.01,-0.15,3.66,3.91,-8.91
60580,0.19,0.98,-0.18,1.10,2.99,-4.15
60600,0.19,0.98,-0.19,0.24,2.62,-4.33
60620,0.19,0.99,-0.18,-0.31,2.14,-5.13
60640,0.18,0.99,-0.18,-0.31,2.01,-5.25
60660,0.17,0.99,-0.17,-0.37,1.46,-4.33
60680,0.17,0.99,-0.17,-0.67,1.10,-3.11
60700,0.18,0.99,-0.18,-0.18,0.55,-1.89
60720,0.18,0.99,-0.18,0.00,0.73,-1.53
60740,0.18,0.98,-0.18,-0.18,0.67,-1.34
60760,0.18,0.99,-0.18,-0.24,0.55,-0.79
60780,0.18,0.99,-0.17,-0.79,0.37,-0.24
60800,0.18,0.98,-0.18,-0.37,0.00,0.24
60820,0.19,0.98,-0.18,-0.73,0.06,0.12
60840,0.18,0.99,-0.18,-1.22,0.43,0.18
60860,0.18,0.99,-0.18,-1.46,0.00,0.79
60880,0.18,0.98,-0.18,-1.46,-0.31,0.92
60900,0.18,0.98,-0.18,-1.40,-0.12,1.04
60920,0.18,0.99,-0.18,-1.71,-0.31,1.40
60940,0.18,0.98,-0.18,-1.89,-0.49,2.01
60960,0.19,0.98,-0.18,-2.32,-1.10,2.01
60980,0.18,0.99,-0.17,-2.62,-1.34,2.20
61000,0.17,1.00,-0.17,-3.05,-1.83,2.81
61020,0.19,0.99,-0.18,-4.64,-3.48,5.55
61040,0.19,1.00,-0.17,-5.80,-4.21,6.77
61060,0.18,1.00,-0.17,-7.08,-4.82,8.48
61080,0.16,1.01,-0.17,-10.31,-6.41,12.08
61100,0.22,1.00,-0.15,-11.23,-8.06,14.16
61120,0.21,1.00,-0.17,-10.44,-6.53,14.71
61140,0.21,1.00,-0.17,-10.50,-7.51,15.44
61160,0.24,1.00,-0.15,-10.19,-8.00,16.36
61180,0.24,1.00,-0.17,-10.01,-7.08,16.72
61200,0.23,1.03,-0.16,-9.52,-7.51,18.43
61220,0.25,1.00,-0.18,-9.52,-7.75,21.24
61240,0.26,1.02,-0.19,-12.15,-6.59,22.03
61260,0.28,0.98,-0.14,-13.73,-7.81,23.50
61280,0.29,0.96,-0.10,-14.65,-7.08,22.95
61300,0.29,0.98,-0.09,-13.43,-5.74,22.58
61320,0.30,0.97,-0.11,-13.06,-5.31,23.19
61340,0.32,0.95,-0.12,-12.94,-4.09,22.58
61360,0.33,0.94,-0.11,-13.61,-4.58,21.18
61380,0.34,0.92,-0.07,-13.67,-4.70,19.65
61400,0.36,0.92,-0.05,-11.41,-3.72,16.66
61420,0.36,0.92,-0.04,-9.95,-2.75,14.59
61440,0.37,0.93,-0.06,-8.61,-1.71,12.57
