timestamp,accX,accY,accZ,gyrX,gyrY,gyrZ
0,0.13,0.99,-0.17,-4.52,-5.74,11.78
20,0.17,0.98,-0.18,-6.90,-6.29,11.60
40,0.18,0.98,-0.18,-8.73,-4.39,7.87
60,0.17,1.00,-0.17,-8.67,-2.62,6.41
80,0.13,1.03,-0.14,-7.51,-3.54,7.26
100,0.14,1.07,-0.14,-4.39,-8.67,14.47
120,0.14,1.05,-0.14,-4.27,-9.77,18.31
140,0.12,1.13,-0.18,-4.15,-10.25,22.46
160,0.18,1.10,-0.14,-4.64,-5.00,27.65
180,0.15,1.15,-0.28,-9.22,-7.45,33.08
200,0.19,1.10,-0.26,-10.74,-11.41,40.10
220,0.20,1.10,-0.25,-15.69,-13.98,46.63
240,0.20,1.11,-0.20,-21.67,-17.21,51.82
260,0.21,1.06,-0.13,-23.25,-21.24,58.35
280,0.28,1.03,-0.07,-24.23,-24.84,59.94
300,0.36,0.92,0.01,-22.83,-19.96,58.78
320,0.38,0.88,-0.04,-20.26,-14.04,55.48
340,0.44,0.84,-0.02,-19.41,-19.53,53.10
360,0.42,0.83,-0.06,-19.41,-14.10,45.04
380,0.44,0.78,-0.10,-18.55,-14.22,40.22
400,0.44,0.85,-0.10,-20.39,-14.40,36.19
420,0.49,0.78,-0.05,-19.47,-16.05,29.60
440,0.49,0.80,-0.02,-18.37,-13.24,22.83
460,0.50,0.79,0.03,-16.48,-12.63,19.35
480,0.54,0.79,0.08,-13.18,-9.28,15.14
500,0.53,0.76,0.07,-10.86,-2.56,10.62
520,0.53,0.78,0.08,-7.81,0.49,2.99
540,0.54,0.79,0.06,-3.23,3.66,-4.58
560,0.55,0.78,0.06,1.65,5.92,-13.85
580,0.57,0.78,0.11,6.84,8.30,-24.29
600,0.52,0.65,0.17,16.36,14.28,-38.21
620,0.38,0.97,-0.04,19.96,20.02,-42.48
640,0.40,1.00,-0.11,20.69,9.34,-35.89
660,0.40,0.98,-0.21,16.78,10.01,-29.72
680,0.46,0.93,-0.15,9.34,7.32,-28.08
700,0.44,0.84,0.05,8.12,7.51,-33.81
720,0.35,0.97,0.14,12.76,9.46,-34.30
740,0.32,1.10,-0.04,18.37,2.87,-21.12
760,0.39,0.93,-0.14,16.54,8.42,-12.82
780,0.38,0.90,-0.28,10.86,15.20,-16.66
800,0.38,0.95,-0.14,2.20,8.48,-22.71
820,0.38,0.92,0.03,0.55,10.31,-27.10
840,0.30,0.97,0.01,2.81,16.78,-29.42
860,0.31,0.96,-0.08,8.48,12.70,-24.11
880,0.32,0.97,-0.11,10.31,12.27,-25.51
900,0.37,0.86,-0.18,10.93,13.49,-28.44
920,0.36,0.77,-0.02,6.29,18.55,-43.40
940,0.21,0.99,-0.08,3.60,27.28,-51.15
960,0.19,1.09,-0.20,1.16,20.81,-44.43
980,0.21,1.13,-0.35,-2.99,23.44,-36.07
1000,0.16,1.11,-0.19,-8.61,12.76,-30.94
1020,0.20,1.13,-0.06,-8.67,6.41,-24.72
1040,0.17,1.07,-0.06,-4.52,11.23,-15.75
1060,0.15,1.05,-0.08,-1.34,3.23,-6.71
1080,0.23,0.96,-0.15,-0.55,0.43,-2.62
1100,0.22,0.96,-0.15,-3.17,1.83,-7.45
1120,0.20,1.00,-0.11,-4.39,0.24,-9.28
1140,0.22,0.99,-0.11,-3.48,0.18,-9.64
1160,0.22,0.97,-0.13,-2.69,5.31,-12.08
1180,0.20,0.99,-0.12,-0.37,8.91,-16.91
1200,0.17,1.01,-0.08,0.55,9.77,-17.94
1220,0.11,1.03,-0.09,0.43,8.79,-14.28
1240,0.15,1.01,-0.10,0.24,0.06,-6.71
1260,0.16,1.00,-0.10,0.00,1.04,-4.94
1280,0.16,1.00,-0.12,0.31,3.11,-4.58
1300,0.15,1.00,-0.12,-0.18,2.75,-4.82
1320,0.16,1.00,-0.12,-0.98,2.20,-4.52
1340,0.15,1.00,-0.12,-1.83,2.38,-4.58
1360,0.15,1.00,-0.11,-2.50,1.71,-4.15
1380,0.15,1.00,-0.11,-2.38,1.22,-3.54
1400,0.15,1.00,-0.11,-2.08,0.43,-2.81
1420,0.15,1.00,-0.12,-2.01,0.12,-1.65
1440,0.15,1.00,-0.11,-1.65,0.61,-1.65
1460,0.15,1.00,-0.12,-1.77,0.49,-1.34
1480,0.15,1.00,-0.12,-1.95,0.73,-1.28
1500,0.15,1.00,-0.11,-2.08,0.73,-1.04
1520,0.15,1.00,-0.12,-2.01,0.49,-0.73
1540,0.15,1.00,-0.11,-1.71,0.73,-0.79
1560,0.14,1.00,-0.11,-1.28,1.22,-0.55
1580,0.15,1.00,-0.11,-1.53,0.31,0.00
1600,0.15,1.00,-0.12,-2.20,0.18,0.18
1620,0.15,1.00,-0.12,-1.83,0.85,-0.06
1640,0.15,1.00,-0.11,-1.83,1.22,-0.18
1660,0.14,1.00,-0.11,-1.65,0.98,0.06
1680,0.15,1.00,-0.11,-1.46,0.12,0.79
1700,0.15,1.00,-0.12,-1.28,0.43,1.04
1720,0.16,1.00,-0.12,-1.65,0.55,0.98
1740,0.15,1.00,-0.11,-2.08,1.22,0.61
1760,0.14,1.00,-0.11,-2.26,1.04,1.04
1780,0.15,1.00,-0.10,-2.08,0.18,2.08
1800,0.15,1.00,-0.11,-1.89,0.12,2.38
1820,0.15,1.00,-0.11,-2.62,0.24,2.93
1840,0.12,1.01,-0.09,-4.64,-0.79,4.88
1860,0.15,1.00,-0.11,-7.81,-4.39,10.31
1880,0.15,1.01,-0.11,-8.91,-6.59,12.76
1900,0.15,1.01,-0.09,-11.17,-8.91,15.69
1920,0.17,1.02,-0.10,-12.39,-11.17,19.96
1940,0.21,1.00,-0.11,-10.62,-11.05,21.00
1960,0.19,1.06,-0.17,-9.77,-8.24,21.55
1980,0.17,1.15,-0.11,-9.77,-9.89,23.19
2000,0.15,1.28,-0.12,-15.20,-7.45,34.55
2020,0.18,1.20,-0.18,-18.55,-5.68,46.26
2040,0.19,1.17,-0.22,-24.17,-4.76,52.55
2060,0.26,1.01,-0.11,-32.29,-10.56,58.11
2080,0.27,1.00,-0.04,-35.52,-9.95,58.41
2100,0.30,0.93,0.02,-35.22,-8.18,60.36
2120,0.38,0.87,0.05,-31.07,-6.96,61.40
2140,0.41,0.83,0.09,-26.86,-6.59,56.52
2160,0.43,0.78,0.09,-21.30,-6.41,51.33
2180,0.47,0.74,0.10,-14.59,-10.38,39.06
2200,0.49,0.72,0.09,-10.56,-8.61,31.74
2220,0.49,0.75,0.09,-5.86,-6.59,21.97
2240,0.48,0.83,0.10,0.24,-3.91,11.96
2260,0.50,0.84,0.08,2.50,-4.39,8.97
2280,0.48,0.84,0.03,2.87,-0.43,4.58
2300,0.48,0.87,0.00,1.89,1.53,0.31
2320,0.50,0.84,0.03,0.98,1.10,-2.99
2340,0.51,0.79,0.05,1.71,2.26,-8.67
2360,0.50,0.77,0.08,3.30,4.82,-20.63
2380,0.44,0.88,0.07,7.02,6.41,-26.61
2400,0.43,0.92,0.06,10.99,4.39,-28.14
2420,0.44,0.91,0.06,14.89,3.54,-29.11
2440,0.47,0.75,0.06,20.39,7.51,-35.34
2460,0.43,0.76,0.04,22.40,10.44,-42.48
2480,0.34,0.91,-0.03,23.38,11.35,-45.90
2500,0.33,1.00,-0.04,24.23,5.98,-40.89
2520,0.35,0.90,-0.04,24.29,7.26,-39.00
2540,0.37,0.83,-0.05,21.12,10.68,-46.45
2560,0.24,0.98,-0.04,16.30,20.94,-57.56
2580,0.14,1.17,-0.03,16.24,18.31,-54.99
2600,0.12,1.28,-0.06,18.13,14.04,-41.81
2620,0.27,1.03,-0.18,21.67,17.15,-26.98
2640,0.39,0.90,-0.20,19.17,27.34,-34.24
2660,0.28,1.08,-0.38,14.04,42.91,-48.03
2680,0.23,1.16,-0.13,19.78,28.87,-45.17
2700,0.11,1.16,-0.08,20.39,5.31,-24.54
2720,0.18,1.00,-0.15,5.92,4.76,-10.25
2740,0.18,1.00,-0.11,0.92,7.02,-9.34
2760,0.16,1.01,-0.11,1.10,4.46,-8.91
2780,0.16,1.00,-0.11,2.32,2.44,-8.24
2800,0.17,1.00,-0.13,3.42,1.83,-8.85
2820,0.16,0.99,-0.15,1.89,1.53,-9.83
2840,0.15,1.00,-0.14,-0.12,1.34,-10.07
2860,0.16,0.99,-0.15,-1.71,0.24,-9.16
2880,0.15,1.00,-0.13,-1.16,0.49,-7.81
2900,0.14,1.00,-0.13,-0.85,0.79,-7.26
2920,0.14,1.00,-0.12,0.43,1.10,-6.04
2940,0.14,1.00,-0.13,0.98,1.53,-4.46
2960,0.14,1.00,-0.14,0.43,0.67,-3.60
2980,0.13,1.00,-0.14,-0.24,0.49,-3.05
3000,0.14,1.00,-0.14,-1.10,-0.18,-1.53
3020,0.14,1.00,-0.13,-1.28,0.24,-0.85
3040,0.14,1.00,-0.13,-1.28,0.31,-0.67
3060,0.14,1.00,-0.14,-0.79,0.49,0.31
3080,0.14,1.00,-0.13,-0.67,0.92,0.73
3100,0.15,1.00,-0.14,-0.49,0.49,0.12
3120,0.14,1.00,-0.14,-1.04,0.31,-0.12
3140,0.14,1.00,-0.14,-1.46,0.79,0.37
3160,0.15,1.00,-0.14,-1.22,0.79,0.43
3180,0.14,1.00,-0.13,-1.53,1.16,0.73
3200,0.15,1.00,-0.14,-0.85,1.16,1.34
3220,0.15,1.00,-0.14,-0.67,1.22,1.77
3240,0.15,1.00,-0.14,-0.43,1.16,2.01
3260,0.15,1.00,-0.13,-0.12,1.34,2.14
3280,0.15,1.00,-0.14,0.37,1.04,2.14
3300,0.15,1.00,-0.13,0.49,1.28,2.26
3320,0.15,0.99,-0.14,0.18,1.65,2.81
3340,0.15,0.99,-0.14,-0.79,2.44,3.91
3360,0.14,1.00,-0.13,-1.83,2.26,5.00
3380,0.18,0.98,-0.16,-3.78,0.31,5.25
3400,0.17,0.99,-0.14,-5.13,0.00,2.56
3420,0.13,1.00,-0.13,-5.98,-0.85,2.56
3440,0.15,1.00,-0.12,-8.73,-5.43,8.00
3460,0.13,1.02,-0.11,-11.47,-8.06,11.60
3480,0.16,1.02,-0.12,-14.65,-12.45,15.56
3500,0.18,1.02,-0.11,-19.53,-15.20,17.82
3520,0.16,1.06,-0.11,-16.11,-13.12,19.10
3540,0.23,1.02,-0.11,-14.65,-16.24,22.46
3560,0.20,1.06,-0.15,-8.73,-11.29,23.25
3580,0.19,1.12,-0.16,-8.00,-9.58,25.27
3600,0.21,1.16,-0.12,-10.19,-9.95,30.46
3620,0.17,1.19,-0.20,-14.22,-4.09,40.41
3640,0.22,1.14,-0.16,-21.73,-8.85,47.06
3660,0.24,1.06,-0.17,-28.20,-7.69,51.45
3680,0.29,0.96,-0.16,-36.01,-8.30,53.47
3700,0.32,0.89,-0.06,-44.92,-6.47,49.74
3720,0.29,0.98,0.05,-45.23,-8.54,49.13
3740,0.37,1.01,0.09,-43.88,-9.52,54.26
3760,0.35,0.98,0.06,-36.13,-3.60,59.94
3780,0.45,0.80,0.03,-32.35,-3.30,61.83
3800,0.51,0.71,0.06,-29.97,-6.04,54.26
3820,0.53,0.65,0.11,-23.80,-4.03,39.61
3840,0.55,0.66,0.17,-15.93,-6.96,27.34
3860,0.57,0.63,0.17,-8.36,-5.43,14.95
3880,0.57,0.64,0.15,2.75,-1.71,-2.38
3900,0.58,0.65,0.17,9.64,0.85,-16.66
3920,0.56,0.67,0.12,17.03,3.42,-30.27
3940,0.53,0.72,0.08,23.99,4.76,-47.12
3960,0.43,0.93,0.11,28.20,4.27,-53.34
3980,0.36,1.01,0.16,36.38,1.34,-52.19
4000,0.32,1.04,0.07,41.50,1.83,-41.99
4020,0.40,0.85,-0.13,39.92,8.85,-38.51
4040,0.43,0.71,-0.20,28.93,11.84,-44.43
4060,0.34,0.90,-0.18,15.93,11.66,-52.00
4080,0.18,1.20,-0.02,9.16,5.49,-48.77
4100,0.26,1.12,0.06,11.35,0.98,-37.60
4120,0.32,0.98,-0.00,17.82,8.48,-34.06
4140,0.39,0.83,0.13,24.66,19.53,-47.79
4160,0.14,1.18,-0.03,35.58,30.15,-54.14
4180,0.07,1.39,-0.15,44.19,29.17,-37.05
4200,0.29,0.99,-0.44,39.92,27.83,-13.73
4220,0.34,0.93,-0.32,21.42,21.73,-21.79
4240,0.25,1.05,-0.18,13.24,24.17,-28.50
4260,0.14,1.07,-0.11,10.13,17.70,-22.64
4280,0.16,1.01,-0.15,5.55,11.90,-18.68
4300,0.18,1.00,-0.17,2.08,8.24,-17.70
4320,0.17,1.00,-0.15,-2.87,3.54,-16.30
4340,0.17,1.00,-0.13,-4.46,2.01,-15.81
4360,0.16,1.00,-0.13,-5.13,0.67,-14.28
4380,0.17,1.00,-0.14,-3.23,0.37,-13.73
4400,0.15,1.00,-0.14,-2.01,-0.06,-11.47
4420,0.15,1.00,-0.13,-1.83,0.06,-9.52
4440,0.15,1.00,-0.13,-1.16,0.85,-7.14
4460,0.15,1.00,-0.15,0.37,0.67,-3.91
4480,0.15,1.00,-0.14,0.67,0.43,-3.11
4500,0.15,0.99,-0.15,0.85,-0.18,-3.30
4520,0.16,0.99,-0.16,1.16,-0.61,-3.48
4540,0.15,0.99,-0.16,-0.06,-0.12,-4.21
4560,0.14,1.00,-0.15,-1.10,0.24,-3.91
4580,0.14,1.00,-0.15,-1.53,0.73,-1.46
4600,0.14,1.00,-0.14,-2.14,1.10,-0.37
4620,0.15,1.00,-0.14,-1.59,0.61,0.79
4640,0.15,1.00,-0.15,-0.73,0.37,-0.61
4660,0.15,0.99,-0.16,-0.92,0.61,-0.92
4680,0.14,1.00,-0.15,-1.53,1.34,-0.98
4700,0.14,1.00,-0.15,-2.20,1.59,-0.24
4720,0.14,1.00,-0.14,-2.44,1.89,0.79
4740,0.16,0.99,-0.15,-1.89,1.53,1.71
4760,0.15,1.00,-0.14,-0.67,1.65,0.61
4780,0.15,1.00,-0.14,-0.67,1.28,0.31
4800,0.15,1.00,-0.15,-0.43,0.92,0.43
4820,0.15,1.00,-0.15,-0.85,0.85,0.43
4840,0.16,0.99,-0.15,-1.04,1.04,0.55
4860,0.15,1.00,-0.14,-0.61,0.98,-0.12
4880,0.15,1.00,-0.15,0.00,0.85,-0.55
4900,0.15,0.99,-0.15,-0.43,0.67,-0.24
4920,0.15,0.99,-0.15,-1.04,0.92,-0.18
4940,0.15,1.00,-0.15,-1.77,1.16,0.31
4960,0.15,1.00,-0.14,-1.46,1.40,1.04
4980,0.15,1.00,-0.15,0.31,0.73,1.04
5000,0.15,1.00,-0.15,0.92,0.49,0.85
5020,0.15,0.99,-0.15,0.49,0.92,0.92
5040,0.15,0.99,-0.15,-0.55,1.28,0.85
5060,0.15,0.99,-0.15,-1.53,1.40,1.16
5080,0.15,1.00,-0.14,-1.83,1.04,1.71
5100,0.16,0.99,-0.15,-0.92,0.06,1.77
5120,0.16,0.99,-0.16,-1.89,0.00,1.10
5140,0.16,1.00,-0.14,-3.48,0.49,1.34
5160,0.13,1.00,-0.13,-3.66,0.24,2.01
5180,0.15,1.00,-0.14,-3.97,-1.28,4.46
5200,0.16,0.99,-0.15,-6.41,-2.01,4.58
5220,0.16,1.00,-0.14,-8.12,-2.62,4.52
5240,0.16,1.01,-0.13,-8.73,-3.42,4.82
5260,0.17,1.00,-0.13,-8.18,-3.91,5.98
5280,0.17,1.00,-0.13,-7.75,-4.21,6.84
5300,0.18,1.00,-0.12,-8.12,-5.86,8.18
5320,0.19,0.99,-0.14,-7.57,-5.49,8.30
5340,0.19,1.00,-0.13,-7.26,-4.76,7.57
5360,0.20,1.00,-0.13,-7.75,-4.15,7.81
5380,0.20,1.00,-0.13,-7.93,-3.72,7.32
5400,0.19,1.01,-0.13,-7.45,-2.93,7.51
5420,0.21,1.01,-0.10,-6.41,-4.27,8.24
5440,0.19,1.03,-0.12,-5.07,-3.72,9.77
5460,0.17,1.08,-0.10,-3.66,-4.64,14.28
5480,0.19,1.09,-0.10,-2.81,-5.19,19.10
5500,0.22,1.07,-0.13,-3.30,-4.52,23.19
5520,0.24,1.04,-0.14,-4.27,-5.13,25.82
5540,0.23,1.03,-0.13,-6.16,-4.58,26.55
5560,0.25,1.01,-0.10,-7.75,-6.84,28.69
5580,0.26,1.02,-0.10,-7.87,-6.77,30.21
5600,0.28,1.00,-0.07,-8.06,-8.24,32.41
5620,0.30,0.96,-0.07,-7.87,-7.87,33.33
5640,0.31,0.94,-0.09,-8.54,-5.98,31.43
5660,0.34,0.92,-0.08,-9.40,-7.39,30.58
5680,0.34,0.94,-0.08,-10.19,-6.04,28.69
5700,0.36,0.91,-0.06,-9.83,-6.65,27.77
5720,0.38,0.90,-0.06,-10.44,-4.70,25.02
5740,0.39,0.89,-0.05,-10.80,-3.17,22.71
5760,0.38,0.92,-0.05,-10.25,-2.20,20.87
5780,0.38,0.97,-0.04,-8.85,-3.11,19.23
5800,0.41,0.92,-0.03,-8.42,-5.25,20.20
5820,0.42,0.90,-0.04,-8.79,-3.05,18.62
5840,0.42,0.90,-0.05,-9.95,-1.95,15.93
5860,0.43,0.88,-0.05,-11.29,-2.32,14.83
5880,0.42,0.92,-0.06,-12.94,-1.28,13.24
5900,0.43,0.94,-0.04,-16.05,-1.22,12.39
5920,0.45,0.91,-0.01,-16.91,-1.53,12.76
5940,0.45,0.88,-0.01,-17.70,-0.67,11.35
5960,0.45,0.89,-0.00,-18.07,-0.12,8.91
5980,0.46,0.89,-0.00,-18.62,0.12,8.00
6000,0.48,0.85,-0.00,-18.74,1.65,6.47
6020,0.50,0.78,-0.04,-24.35,4.94,2.01
6040,0.54,0.77,-0.02,-25.76,5.74,-6.10
6060,0.50,0.75,0.15,-22.71,4.09,-16.78
6080,0.42,0.91,0.26,-12.63,-0.06,-23.68
6100,0.42,0.97,0.19,2.56,1.71,-21.30
6120,0.41,0.98,0.10,11.17,4.94,-19.96
6140,0.40,1.01,-0.01,13.06,8.24,-17.94
6160,0.40,1.00,-0.10,9.16,5.86,-12.63
6180,0.41,0.96,-0.06,4.21,2.99,-10.01
6200,0.40,0.95,-0.02,-0.98,2.14,-8.12
6220,0.41,0.93,0.00,-4.58,0.85,-7.69
6240,0.45,0.86,0.04,-4.27,-0.49,-8.85
6260,0.45,0.83,0.04,-3.11,1.77,-14.04
6280,0.39,0.90,0.12,2.14,3.72,-23.68
6300,0.36,0.98,0.13,7.87,2.87,-25.27
6320,0.37,0.94,0.05,13.43,3.05,-23.19
6340,0.42,0.83,-0.09,14.22,5.00,-24.11
6360,0.45,0.78,-0.16,6.04,6.65,-29.66
6380,0.39,0.78,-0.15,-6.35,7.75,-37.96
6400,0.10,1.15,0.17,-1.95,-1.71,-38.64
6420,0.27,1.09,0.20,5.98,-0.73,-27.10
6440,0.33,0.99,0.18,19.71,3.97,-26.06
6460,0.33,0.93,0.07,36.07,16.91,-30.27
6480,0.25,0.93,0.01,41.99,18.74,-36.19
6500,0.17,1.10,-0.07,41.69,13.31,-32.10
6520,0.26,1.06,-0.23,35.64,10.68,-20.94
6540,0.28,1.00,-0.25,22.71,11.29,-21.97
6560,0.28,1.00,-0.13,13.98,15.26,-26.06
6580,0.21,1.11,-0.02,16.42,22.71,-30.15
6600,0.06,1.15,-0.15,27.16,14.22,-8.42
6620,0.22,0.98,-0.22,15.81,0.18,5.13
6640,0.30,0.93,-0.22,4.76,-3.72,2.87
6660,0.24,0.98,-0.11,-1.65,-2.62,-0.61
6680,0.24,0.99,-0.09,-2.56,0.43,-2.56
6700,0.22,1.00,-0.10,-1.59,3.97,-3.97
6720,0.20,0.99,-0.14,-3.05,2.56,-3.66
6740,0.23,0.97,-0.14,-5.00,-0.43,-3.30
6760,0.24,0.96,-0.13,-1.28,-0.31,-4.39
6780,0.22,0.98,-0.13,1.16,2.99,-8.06
6800,0.21,0.99,-0.12,1.95,4.09,-10.56
6820,0.22,0.98,-0.14,3.23,4.64,-12.15
6840,0.22,0.97,-0.15,3.97,6.77,-16.24
6860,0.19,1.00,-0.16,5.25,7.08,-17.88
6880,0.15,1.01,-0.14,4.64,6.84,-15.93
6900,0.15,1.01,-0.14,0.61,1.71,-8.97
6920,0.18,1.00,-0.14,-0.12,1.10,-7.45
6940,0.18,1.00,-0.13,0.43,1.53,-7.02
6960,0.18,0.99,-0.14,0.98,2.08,-6.71
6980,0.18,0.99,-0.15,-0.06,2.50,-7.32
7000,0.18,0.99,-0.15,-1.83,2.14,-8.36
7020,0.17,0.99,-0.14,-3.11,2.38,-8.85
7040,0.15,1.00,-0.13,-2.32,2.32,-8.24
7060,0.15,1.00,-0.14,-1.28,1.59,-6.47
7080,0.15,1.00,-0.13,-0.31,1.28,-4.88
7100,0.15,1.00,-0.14,0.12,1.77,-3.66
7120,0.16,0.99,-0.15,-0.12,1.46,-2.93
7140,0.16,0.99,-0.15,-0.85,1.83,-2.81
7160,0.15,1.00,-0.14,-1.83,1.71,-2.75
7180,0.15,1.00,-0.14,-1.89,1.28,-2.44
7200,0.15,1.00,-0.14,-1.71,0.18,-1.59
7220,0.15,1.00,-0.14,-0.85,-0.06,-0.85
7240,0.15,1.00,-0.14,0.24,0.00,-0.55
7260,0.15,1.00,-0.14,-0.06,0.18,-0.37
7280,0.15,1.00,-0.14,-0.31,0.24,-0.61
7300,0.15,1.00,-0.14,-0.12,0.43,-0.67
7320,0.16,1.00,-0.15,1.16,0.85,-0.61
7340,0.16,0.99,-0.15,0.61,1.16,-0.98
7360,0.15,0.99,-0.15,-0.67,1.65,-1.04
7380,0.15,1.00,-0.14,-0.85,1.71,-1.22
7400,0.15,0.99,-0.15,0.92,1.46,-0.85
7420,0.15,0.99,-0.15,0.00,1.65,-0.73
7440,0.15,0.99,-0.15,-0.31,1.89,-0.67
7460,0.15,1.00,-0.14,-1.04,1.65,-0.67
7480,0.15,0.99,-0.15,-1.95,0.85,-0.31
7500,0.16,0.99,-0.15,-2.38,0.85,-0.37
7520,0.15,1.00,-0.14,-1.89,0.67,-0.43
7540,0.15,0.99,-0.15,-1.16,0.73,-0.12
7560,0.14,1.00,-0.14,-2.01,0.92,-0.24
7580,0.15,1.00,-0.14,-2.08,0.37,0.49
7600,0.15,1.00,-0.14,-1.53,0.18,1.34
7620,0.16,1.00,-0.14,-0.67,-0.12,1.83
7640,0.16,1.00,-0.15,0.49,0.37,2.08
7660,0.16,0.99,-0.14,-0.24,0.98,2.14
7680,0.14,1.00,-0.13,-0.92,0.55,2.99
7700,0.15,1.00,-0.14,-1.04,-0.92,6.10
7720,0.16,0.99,-0.16,-4.21,-1.77,7.39
7740,0.17,1.00,-0.14,-5.37,-0.98,7.02
7760,0.16,1.00,-0.13,-4.58,-0.98,7.81
7780,0.16,1.00,-0.13,-5.25,-1.46,11.11
7800,0.15,1.02,-0.13,-8.73,-5.31,13.92
7820,0.17,1.01,-0.16,-12.08,-7.32,17.52
7840,0.19,1.00,-0.18,-15.26,-8.36,18.98
7860,0.19,1.01,-0.20,-19.41,-9.09,17.58
7880,0.20,1.05,-0.14,-19.04,-9.16,16.48
7900,0.24,1.02,-0.12,-17.76,-7.69,16.60
7920,0.22,1.04,-0.11,-18.86,-6.04,18.19
7940,0.23,1.03,-0.08,-18.80,-4.46,20.94
7960,0.23,1.02,-0.06,-18.31,-3.85,22.34
7980,0.26,1.00,-0.06,-16.48,-2.87,23.93
8000,0.27,0.98,-0.05,-15.69,-1.95,23.19
8020,0.27,0.98,-0.06,-13.92,-1.46,22.34
8040,0.30,0.97,-0.03,-11.35,-1.77,22.28
8060,0.29,1.00,-0.01,-7.20,-0.61,22.77
8080,0.28,1.02,-0.00,-3.05,-1.16,25.57
8100,0.31,0.98,-0.03,-1.59,0.61,28.56
8120,0.35,0.90,-0.07,-2.62,1.22,26.86
8140,0.36,0.91,-0.14,-6.84,3.42,21.97
8160,0.36,0.89,-0.16,-13.85,0.49,17.27
8180,0.37,0.91,-0.13,-19.41,-1.77,13.67
8200,0.36,0.90,-0.05,-23.07,-5.00,11.29
8220,0.36,0.94,-0.01,-25.51,-5.98,8.91
8240,0.36,0.97,-0.01,-27.40,-4.09,7.45
8260,0.39,0.93,0.01,-27.71,-4.46,8.00
8280,0.33,1.03,0.01,-26.92,-2.38,7.75
8300,0.32,1.11,0.06,-20.75,-6.10,16.17
8320,0.35,1.05,0.08,-15.08,-6.77,24.48
8340,0.35,1.08,0.05,-14.40,-2.44,30.09
8360,0.39,1.01,0.06,-13.06,0.31,37.05
8380,0.42,0.96,0.07,-11.47,2.38,39.73
8400,0.48,0.85,0.09,-7.75,1.16,38.88
8420,0.55,0.67,0.10,-1.83,-1.71,27.83
8440,0.60,0.58,0.18,2.99,-1.40,14.77
8460,0.59,0.53,0.19,8.18,2.81,-2.99
8480,0.58,0.60,0.13,13.37,8.79,-29.36
8500,0.51,0.70,0.07,19.04,10.99,-45.10
8520,0.47,0.77,-0.01,23.13,10.99,-55.24
8540,0.34,0.98,0.00,27.47,5.25,-59.33
8560,0.31,1.07,-0.04,28.02,2.62,-51.57
8580,0.35,1.01,-0.10,24.90,2.32,-43.21
8600,0.35,0.96,-0.10,21.97,8.12,-39.55
8620,0.29,0.88,-0.02,17.40,11.35,-41.32
8640,0.22,1.10,0.03,14.83,5.49,-38.94
8660,0.28,1.02,-0.06,14.34,3.66,-30.94
8680,0.33,0.94,-0.09,17.21,3.66,-26.67
8700,0.35,0.86,-0.16,12.57,9.28,-31.37
8720,0.35,0.78,-0.09,7.75,10.56,-41.75
8740,0.19,1.18,0.01,5.13,10.19,-49.32
8760,0.18,1.30,-0.05,9.16,10.07,-39.18
8780,0.13,1.19,-0.09,13.18,13.55,-27.04
8800,0.21,1.06,-0.14,18.86,17.03,-16.85
8820,0.20,1.00,-0.14,20.94,16.91,-16.78
8840,0.12,1.03,-0.13,21.12,13.18,-16.05
8860,0.20,1.01,-0.13,12.45,0.85,-5.55
8880,0.20,1.00,-0.12,9.95,2.38,-3.78
8900,0.22,0.98,-0.15,9.58,1.95,-4.58
8920,0.23,0.97,-0.17,2.26,3.11,-8.42
8940,0.21,0.98,-0.15,-1.59,4.94,-12.08
8960,0.16,1.00,-0.13,-4.15,6.41,-14.53
8980,0.13,1.02,-0.10,-5.68,1.34,-8.79
9000,0.17,1.00,-0.11,-5.43,-1.22,-5.92
9020,0.18,1.00,-0.12,-1.34,-1.04,-5.00
9040,0.17,0.99,-0.13,1.46,0.06,-5.31
9060,0.17,1.00,-0.12,1.16,1.10,-5.55
9080,0.17,1.00,-0.13,2.44,1.28,-5.13
9100,0.17,1.00,-0.13,2.81,0.79,-4.88
9120,0.17,1.00,-0.13,2.93,0.67,-4.09
9140,0.16,1.00,-0.13,2.75,1.22,-4.21
9160,0.16,0.99,-0.14,1.10,1.40,-4.52
9180,0.15,1.00,-0.12,-0.18,1.71,-4.58
9200,0.15,1.01,-0.12,0.73,0.55,-3.42
9220,0.16,1.00,-0.14,1.83,0.18,-2.26
9240,0.15,1.00,-0.13,1.04,0.37,-2.20
9260,0.16,0.99,-0.14,1.04,0.18,-1.77
9280,0.16,0.99,-0.14,0.12,0.43,-1.71
9300,0.16,1.00,-0.14,-0.37,0.37,-1.65
9320,0.16,1.00,-0.14,0.00,0.43,-1.59
9340,0.15,1.00,-0.14,0.92,0.55,-1.46
9360,0.16,0.99,-0.15,0.31,0.43,-1.89
9380,0.15,0.99,-0.15,-0.18,0.67,-1.89
9400,0.15,1.00,-0.14,-1.10,0.79,-1.65
9420,0.15,1.00,-0.14,-2.38,0.73,-0.73
9440,0.15,1.00,-0.13,-2.14,0.92,-0.37
9460,0.15,1.00,-0.14,-1.10,0.67,-0.37
9480,0.15,1.00,-0.14,0.73,0.61,0.06
9500,0.15,1.00,-0.14,0.67,0.73,0.18
9520,0.15,1.00,-0.14,0.18,0.85,0.06
9540,0.15,1.00,-0.14,-0.67,0.92,0.31
9560,0.15,0.99,-0.14,-2.26,1.10,0.55
9580,0.15,1.00,-0.14,-3.11,1.34,0.55
9600,0.15,1.00,-0.14,-3.97,1.59,0.37
9620,0.15,1.00,-0.13,-4.21,0.55,0.79
9640,0.12,1.01,-0.11,-3.30,-0.79,2.01
9660,0.17,1.00,-0.15,-3.36,-3.48,4.33
9680,0.18,0.99,-0.15,-3.66,-3.30,2.87
9700,0.17,1.00,-0.13,-3.30,-2.75,2.26
9720,0.16,1.00,-0.13,-2.81,-2.26,2.56
9740,0.15,1.03,-0.10,-2.08,-4.76,6.10
9760,0.17,1.00,-0.13,-1.77,-8.24,10.44
9780,0.18,0.99,-0.15,-4.94,-7.39,11.29
9800,0.12,1.05,-0.12,-9.46,-8.91,16.30
9820,0.12,1.12,-0.10,-9.09,-10.93,24.96
9840,0.12,1.19,-0.15,-6.29,-13.79,34.30
9860,0.16,1.22,-0.17,-2.75,-16.05,47.18
9880,0.20,1.24,-0.22,-4.33,-13.73,57.13
9900,0.22,1.11,-0.31,-9.58,-15.08,65.73
9920,0.23,1.07,-0.30,-22.16,-18.55,69.03
9940,0.25,1.03,-0.14,-37.41,-20.63,73.00
9960,0.25,1.09,-0.07,-41.81,-17.94,77.21
9980,0.31,1.00,0.00,-43.46,-16.91,84.23
10000,0.38,0.87,-0.04,-43.33,-6.65,84.78
10020,0.47,0.73,-0.04,-44.07,-6.04,80.38
10040,0.55,0.65,-0.03,-44.49,-7.26,67.99
10060,0.56,0.66,0.08,-36.68,-13.98,52.19
10080,0.58,0.65,0.17,-28.32,-16.30,42.60
10100,0.60,0.62,0.22,-17.70,-17.15,30.52
10120,0.64,0.46,0.18,-8.18,-8.42,15.69
10140,0.71,0.41,0.12,-1.22,0.24,1.77
10160,0.74,0.29,0.12,8.73,8.30,-19.41
10180,0.83,0.22,0.14,19.90,21.85,-68.66
10200,0.48,0.18,0.09,19.65,28.63,-97.78
10220,0.38,1.07,0.04,29.91,27.04,-121.46
10240,0.27,1.06,0.15,47.73,-2.93,-105.77
10260,0.23,1.15,-0.03,62.62,9.16,-98.45
10280,0.35,0.70,0.24,58.84,12.27,-93.69
10300,0.17,0.96,-0.16,54.81,49.44,-109.13
10320,0.12,1.62,-0.47,29.72,32.47,-85.88
10340,-0.12,1.84,-0.73,24.96,53.47,-60.97
10360,0.03,1.42,0.05,14.34,0.18,-10.07
10380,0.34,0.88,-0.18,15.87,7.63,13.12
10400,0.34,0.87,-0.17,8.97,14.77,-2.75
10420,0.36,0.85,-0.24,7.26,20.69,-18.25
10440,0.14,1.05,-0.13,2.44,19.53,-33.75
10460,0.09,1.05,-0.12,5.49,11.05,-26.67
10480,0.13,1.00,-0.16,0.06,2.69,-17.58
10500,0.17,0.99,-0.15,-7.32,-0.12,-13.61
10520,0.19,0.99,-0.15,-8.36,-1.53,-15.63
10540,0.17,1.00,-0.13,-8.30,-2.50,-18.43
10560,0.16,1.00,-0.13,-3.42,-3.05,-17.52
10580,0.12,1.00,-0.12,-1.46,-0.79,-15.14
10600,0.12,1.00,-0.13,-1.16,-0.98,-9.46
10620,0.14,0.99,-0.14,-1.46,-0.18,-3.30
10640,0.15,1.00,-0.12,0.24,1.10,-1.83
10660,0.13,1.01,-0.12,2.01,1.40,-1.22
10680,0.14,1.00,-0.12,4.15,0.98,1.77
10700,0.15,1.00,-0.14,7.08,1.10,2.93
10720,0.15,0.99,-0.15,7.02,1.83,3.42
10740,0.16,0.98,-0.17,7.75,1.65,3.48
10760,0.15,1.00,-0.16,5.00,2.81,3.72
10780,0.11,1.00,-0.14,4.82,4.52,6.84
10800,0.13,1.00,-0.13,3.66,4.46,13.12
10820,0.13,1.00,-0.16,2.87,2.01,28.75
10840,0.11,1.01,-0.17,-6.04,-2.08,34.85
10860,0.16,1.03,-0.18,-22.09,-11.05,37.72
10880,0.17,1.14,-0.18,-32.65,-25.57,40.53
10900,0.22,1.23,-0.29,-26.12,-30.58,43.88
10920,0.20,1.36,-0.29,-19.78,-32.23,49.99
10940,0.17,1.26,-0.31,-28.02,-21.18,66.83
10960,0.23,1.09,-0.32,-41.14,-23.19,69.52
10980,0.24,1.03,-0.24,-55.42,-22.34,68.48
11000,0.25,0.92,-0.03,-71.72,-15.87,74.10
11020,0.42,0.80,0.03,-71.04,-11.90,76.90
11040,0.43,0.80,-0.02,-72.08,-4.09,75.07
11060,0.58,0.64,0.08,-66.10,-4.33,61.95
11080,0.60,0.58,0.15,-54.38,-10.19,47.61
11100,0.57,0.55,0.18,-39.92,-9.40,35.40
11120,0.48,0.51,0.24,-23.62,-8.54,19.17
11140,0.64,0.36,0.30,-7.81,-4.09,5.80
11160,0.78,0.22,0.32,6.29,1.34,-18.43
11180,0.75,0.28,0.28,24.48,8.24,-50.84
11200,0.63,0.24,-0.12,24.54,6.53,-96.25
11220,0.25,1.47,0.11,21.73,0.43,-128.11
11240,0.18,1.46,0.18,50.42,-19.23,-101.01
11260,0.39,0.72,0.22,68.79,-0.06,-85.08
11280,0.29,0.86,0.21,86.73,16.48,-93.32
11300,-0.03,1.36,-0.01,78.19,32.65,-93.02
11320,0.25,1.44,-0.27,74.10,38.21,-55.11
11340,0.16,1.43,-1.01,85.14,74.40,-44.56
11360,-0.20,1.41,-0.17,83.31,31.80,-38.27
11380,0.20,0.96,-0.26,30.94,12.33,7.08
11400,0.24,0.95,-0.20,11.23,9.28,4.21
11420,0.25,0.93,-0.23,5.49,9.95,-1.53
11440,0.25,0.94,-0.22,-3.05,3.91,-14.95
11460,0.18,0.98,-0.19,-7.87,0.12,-17.76
11480,0.15,1.01,-0.14,-10.19,-1.95,-16.60
11500,0.16,1.00,-0.14,-7.45,-2.44,-10.99
11520,0.17,0.99,-0.15,-5.80,-1.34,-9.28
11540,0.18,0.99,-0.16,-4.58,-1.34,-7.63
11560,0.17,0.99,-0.15,-3.72,-1.16,-6.96
11580,0.16,0.99,-0.16,-3.23,-0.18,-5.13
11600,0.18,0.98,-0.17,-3.60,0.24,-3.54
11620,0.16,0.99,-0.16,-4.64,1.10,-2.99
11640,0.16,0.99,-0.15,-6.59,1.83,-2.14
11660,0.17,0.99,-0.15,-7.39,1.77,-1.65
11680,0.17,1.00,-0.14,-5.43,1.22,-1.04
11700,0.18,0.99,-0.15,-2.32,0.18,-0.73
11720,0.16,0.99,-0.15,-2.44,0.12,-1.59
11740,0.16,0.99,-0.15,-3.23,-0.85,-0.98
11760,0.16,1.00,-0.14,-5.00,-2.26,-0.37
11780,0.18,0.99,-0.15,-5.98,-2.75,-0.79
11800,0.17,1.00,-0.14,-6.47,-2.56,-2.01
11820,0.17,1.00,-0.14,-2.69,-1.59,-1.22
11840,0.17,0.99,-0.14,-1.89,-0.24,-0.55
11860,0.17,1.00,-0.13,-1.89,0.18,-0.55
11880,0.17,1.00,-0.14,-1.53,0.00,0.12
11900,0.17,1.00,-0.13,3.48,-1.04,1.22
11920,0.18,0.99,-0.15,5.43,-0.12,1.77
11940,0.18,0.99,-0.15,3.72,1.22,0.92
11960,0.18,0.99,-0.15,2.20,1.53,0.98
11980,0.18,1.00,-0.14,2.50,1.65,0.79
12000,0.17,0.99,-0.15,3.17,1.59,0.92
12020,0.16,0.99,-0.15,1.71,1.46,1.53
12040,0.18,0.99,-0.15,0.85,0.98,1.95
12060,0.18,0.99,-0.16,0.92,1.10,1.89
12080,0.18,0.99,-0.16,-1.28,0.98,1.22
12100,0.18,0.99,-0.15,-2.20,0.98,0.43
12120,0.16,1.00,-0.15,-2.44,1.22,0.79
12140,0.17,1.00,-0.14,-4.82,-0.43,3.23
12160,0.18,0.99,-0.15,-6.71,-1.04,4.33
12180,0.18,0.99,-0.15,-8.06,-0.85,3.97
12200,0.15,1.01,-0.14,-9.52,-3.66,5.74
12220,0.13,1.05,-0.11,-10.07,-6.90,10.62
12240,0.17,1.04,-0.13,-11.96,-10.99,18.01
12260,0.17,1.09,-0.13,-11.41,-13.06,23.56
12280,0.23,1.07,-0.12,-6.41,-13.00,26.06
12300,0.27,1.00,-0.15,-2.81,-11.47,26.92
12320,0.26,0.98,-0.16,-6.77,-5.92,23.62
12340,0.25,1.00,-0.21,-10.38,-4.82,22.09
12360,0.24,1.01,-0.18,-16.30,-6.71,22.71
12380,0.27,0.97,-0.15,-20.87,-7.63,22.34
12400,0.30,0.93,-0.09,-26.31,-8.18,20.14
12420,0.30,0.92,-0.06,-26.18,-5.68,17.58
12440,0.32,0.91,-0.03,-24.90,-4.58,15.50
12460,0.33,0.95,-0.02,-15.93,-1.65,14.77
12480,0.31,0.95,-0.07,-8.85,0.43,17.09
12500,0.37,0.87,-0.10,-13.00,-3.05,17.52
12520,0.36,0.93,-0.03,-22.03,-5.00,5.37
12540,0.29,1.04,0.03,-18.07,-3.91,3.17
12560,0.28,1.04,0.07,-12.51,-4.52,7.75
12580,0.30,1.05,-0.01,-10.99,-2.56,16.42
12600,0.33,1.00,-0.08,-14.04,-0.79,20.51
12620,0.36,0.95,-0.14,-19.47,-0.73,21.30
12640,0.36,0.95,-0.09,-31.56,-3.11,18.86
12660,0.38,0.91,-0.03,-38.09,-5.31,17.15
12680,0.38,0.89,0.04,-40.77,-5.62,14.34
12700,0.38,0.94,0.12,-38.27,-4.70,10.86
12720,0.39,0.94,0.16,-31.19,-5.92,12.76
12740,0.39,0.95,0.16,-25.39,-2.01,11.84
12760,0.41,0.93,0.16,-14.83,-0.31,10.01
12780,0.42,0.86,0.15,-6.84,0.85,8.42
12800,0.42,0.87,0.11,-5.49,1.46,4.09
12820,0.41,0.91,0.10,-3.60,1.04,0.79
12840,0.38,1.00,0.08,-2.32,1.53,0.98
12860,0.40,0.98,0.09,-1.59,0.73,2.69
12880,0.42,0.92,0.06,-2.14,1.89,3.11
12900,0.47,0.81,0.11,2.08,0.98,-1.53
12920,0.50,0.72,0.18,4.33,2.26,-10.74
12940,0.47,0.75,0.19,7.69,6.53,-23.74
12960,0.39,0.86,0.13,18.37,9.77,-37.54
12980,0.36,0.94,0.09,23.99,8.12,-40.59
13000,0.33,1.00,0.03,27.16,7.02,-40.28
13020,0.35,0.89,0.04,40.22,5.98,-37.29
13040,0.37,0.71,0.10,45.23,7.75,-41.81
13060,0.26,0.95,0.09,47.18,10.01,-49.07
13080,0.26,1.07,-0.20,33.14,6.77,-38.64
13100,0.25,1.04,-0.26,22.64,6.59,-35.58
13120,0.29,1.03,-0.20,11.96,4.21,-35.40
13140,0.39,0.90,-0.06,11.60,8.61,-47.18
13160,0.09,1.31,0.13,23.50,20.08,-55.42
13180,-0.02,1.37,0.12,42.60,28.26,-34.18
13200,0.11,1.12,-0.14,55.42,25.15,-5.00
13220,0.23,0.89,-0.38,48.28,17.58,-9.64
13240,0.11,1.03,-0.20,31.74,9.70,-17.03
13260,0.14,1.00,-0.19,18.55,2.38,-10.25
13280,0.17,1.00,-0.14,7.63,2.26,-8.06
13300,0.17,1.00,-0.14,5.62,3.72,-6.59
13320,0.17,1.00,-0.15,4.33,3.72,-5.25
13340,0.16,0.99,-0.16,1.71,2.81,-6.10
13360,0.17,0.99,-0.16,-0.12,1.71,-5.31
13380,0.17,0.98,-0.17,-1.10,1.34,-5.86
13400,0.17,0.99,-0.16,-2.69,0.31,-7.75
13420,0.16,0.99,-0.15,-2.93,-0.31,-7.81
13440,0.16,1.00,-0.15,-2.44,-0.18,-6.96
13460,0.16,0.99,-0.16,-1.95,-0.67,-6.77
13480,0.15,0.99,-0.16,-2.38,-0.61,-6.41
13500,0.16,0.99,-0.16,-3.72,-0.85,-5.13
13520,0.16,0.99,-0.16,-4.15,0.06,-4.58
13540,0.15,1.00,-0.13,-3.91,-0.49,-4.94
13560,0.16,1.00,-0.15,-2.38,-1.59,-4.64
13580,0.15,0.99,-0.15,-1.40,-1.46,-4.27
13600,0.14,1.00,-0.15,-1.65,-1.22,-3.42
13620,0.15,0.99,-0.15,-1.28,-0.79,-1.89
13640,0.16,0.99,-0.16,-1.04,-0.49,-1.53
13660,0.15,0.99,-0.16,-1.89,-0.24,-2.62
13680,0.14,0.99,-0.15,-1.95,-0.24,-2.44
13700,0.15,1.00,-0.15,-2.32,-0.06,-1.46
13720,0.15,0.99,-0.15,-2.14,0.37,-1.16
13740,0.15,1.00,-0.15,-2.20,0.43,-1.77
13760,0.15,1.00,-0.15,-2.20,0.55,-1.40
13780,0.15,0.99,-0.15,-2.81,0.79,-1.34
13800,0.14,1.00,-0.15,-2.87,0.98,-1.40
13820,0.15,1.00,-0.15,-2.62,1.04,-0.61
13840,0.15,1.00,-0.14,-2.56,1.22,-0.12
13860,0.15,1.00,-0.15,-2.38,1.10,-0.31
13880,0.14,1.00,-0.14,-1.89,1.16,-0.18
13900,0.14,1.00,-0.14,-1.40,0.85,0.61
13920,0.14,1.00,-0.15,-1.28,1.10,1.59
13940,0.15,1.00,-0.15,-1.46,1.83,2.14
13960,0.14,1.00,-0.13,-1.04,2.99,3.48
13980,0.15,1.00,-0.14,-0.92,3.11,3.42
14000,0.15,0.99,-0.15,-1.10,2.56,3.97
14020,0.16,0.99,-0.15,-2.99,1.10,3.30
14040,0.15,1.00,-0.14,-3.48,0.37,3.54
14060,0.14,1.00,-0.14,-4.64,-0.55,4.03
14080,0.14,1.00,-0.13,-7.08,-2.01,6.47
14100,0.10,1.02,-0.12,-9.46,-5.31,8.85
14120,0.14,1.03,-0.10,-13.37,-12.76,14.77
14140,0.16,1.03,-0.11,-14.83,-14.95,19.53
14160,0.14,1.08,-0.10,-16.36,-14.89,23.80
14180,0.13,1.14,-0.12,-12.08,-16.42,29.17
14200,0.20,1.10,-0.17,-5.62,-18.07,35.34
14220,0.23,1.13,-0.15,-2.26,-14.47,39.86
14240,0.21,1.11,-0.25,-5.37,-9.40,44.49
14260,0.23,1.07,-0.23,-10.99,-13.67,47.24
14280,0.26,1.02,-0.19,-23.68,-15.81,51.21
14300,0.29,0.97,-0.12,-31.49,-14.77,52.25
14320,0.32,0.93,-0.08,-36.62,-11.72,52.31
14340,0.34,0.91,-0.02,-39.55,-5.19,49.99
14360,0.40,0.84,0.02,-38.27,-6.71,48.34
14380,0.42,0.84,0.04,-34.00,-3.17,44.25
14400,0.45,0.78,0.05,-26.12,-3.91,35.22
14420,0.49,0.72,0.06,-21.36,-2.38,26.49
14440,0.48,0.77,0.08,-15.87,-2.20,17.15
14460,0.49,0.81,0.11,-10.25,-2.38,6.65
14480,0.47,0.85,0.10,-1.89,-0.98,2.14
14500,0.47,0.88,0.07,2.75,0.49,-1.95
14520,0.48,0.85,0.06,5.92,1.77,-5.86
14540,0.47,0.81,0.04,8.79,4.09,-15.08
14560,0.47,0.80,-0.01,9.83,4.70,-21.55
14580,0.41,0.91,-0.03,9.28,5.07,-27.22
14600,0.40,0.95,0.02,11.54,1.10,-27.71
14620,0.41,0.89,0.04,14.04,1.22,-27.89
14640,0.40,0.91,0.06,16.54,3.91,-30.33
14660,0.41,0.85,-0.01,21.73,4.03,-31.13
14680,0.37,0.90,-0.06,22.22,5.86,-33.63
14700,0.34,0.95,0.01,23.19,5.62,-36.62
14720,0.28,0.99,0.02,26.79,10.44,-38.64
14740,0.26,1.01,-0.06,28.38,11.96,-36.07
14760,0.28,0.96,-0.16,27.28,12.15,-33.14
14780,0.33,0.91,-0.23,13.98,12.57,-37.72
14800,0.39,0.83,-0.11,7.02,12.21,-45.04
14820,0.28,1.04,-0.07,4.52,26.06,-56.21
14840,0.04,1.39,-0.29,11.29,32.29,-44.07
14860,0.08,1.17,-0.13,14.40,9.09,-23.56
14880,0.23,0.99,-0.25,11.35,10.07,-12.27
14900,0.23,1.00,-0.16,-1.95,12.27,-16.97
14920,0.12,1.06,-0.03,-1.53,10.38,-16.30
14940,0.09,1.08,-0.04,4.70,2.93,-7.08
14960,0.22,0.96,-0.17,2.50,-1.34,1.71
14980,0.22,0.97,-0.15,-0.49,0.24,-2.08
15000,0.21,0.98,-0.14,-0.61,0.43,-4.03
15020,0.22,0.98,-0.14,-0.37,2.01,-6.04
15040,0.20,0.99,-0.13,-0.43,5.92,-10.01
15060,0.21,0.99,-0.12,0.85,6.35,-11.29
15080,0.19,1.00,-0.13,-0.67,6.90,-12.27
15100,0.15,1.01,-0.11,-1.10,5.49,-12.39
15120,0.15,1.01,-0.12,-0.24,3.60,-9.16
15140,0.15,1.00,-0.12,-0.85,2.50,-6.16
15160,0.16,0.99,-0.13,-0.24,1.59,-3.97
15180,0.16,1.00,-0.13,-0.55,1.28,-3.54
15200,0.16,1.00,-0.13,-0.49,1.22,-3.54
15220,0.16,1.00,-0.13,0.73,0.79,-3.11
15240,0.16,1.00,-0.13,0.92,1.10,-2.93
15260,0.15,1.00,-0.13,0.37,1.10,-2.62
15280,0.16,1.00,-0.14,-0.18,0.67,-1.71
15300,0.16,1.00,-0.13,0.06,0.24,-1.71
15320,0.16,1.00,-0.14,0.24,0.00,-2.08
15340,0.16,0.99,-0.14,0.12,-0.18,-2.50
15360,0.16,1.00,-0.14,-0.67,0.24,-2.32
15380,0.16,1.00,-0.14,-0.92,0.85,-2.26
15400,0.16,1.00,-0.13,-0.98,1.04,-2.14
15420,0.16,1.00,-0.13,-0.79,1.04,-1.46
15440,0.15,1.00,-0.13,-0.79,1.10,-1.16
15460,0.15,1.00,-0.13,-0.12,1.16,-0.79
15480,0.15,1.00,-0.13,0.37,1.22,0.24
15500,0.16,1.00,-0.14,0.85,1.10,0.67
15520,0.16,1.00,-0.14,0.79,1.16,0.85
15540,0.16,0.99,-0.14,1.04,1.65,1.59
15560,0.15,1.00,-0.13,0.55,1.77,1.89
15580,0.12,1.00,-0.12,0.24,1.04,2.93
15600,0.15,0.98,-0.17,-3.91,-2.32,7.45
15620,0.15,1.00,-0.14,-7.87,-3.23,7.32
15640,0.16,1.01,-0.13,-11.66,-5.68,9.09
15660,0.16,1.02,-0.11,-14.95,-8.97,11.72
15680,0.14,1.03,-0.10,-18.19,-10.07,15.26
15700,0.18,1.05,-0.11,-18.98,-13.06,20.20
15720,0.16,1.08,-0.12,-15.56,-11.90,25.33
15740,0.18,1.12,-0.16,-8.85,-13.67,30.70
15760,0.22,1.11,-0.14,-7.26,-12.88,34.97
15780,0.19,1.20,-0.19,-11.41,-7.93,39.73
15800,0.16,1.23,-0.18,-14.89,-8.06,51.88
15820,0.21,1.18,-0.14,-18.07,-11.90,60.97
15840,0.24,1.09,-0.12,-21.85,-10.68,67.87
15860,0.31,0.90,-0.10,-31.13,-12.63,74.89
15880,0.36,0.86,-0.08,-37.72,-10.68,73.12
15900,0.37,0.86,-0.09,-39.73,-8.24,69.34
15920,0.44,0.86,0.04,-40.04,-7.75,68.18
15940,0.47,0.83,0.07,-37.41,-11.35,63.66
15960,0.53,0.73,0.11,-33.75,-8.97,59.20
15980,0.58,0.64,0.16,-21.79,-6.53,40.71
16000,0.59,0.63,0.16,-13.79,-3.72,27.10
16020,0.59,0.66,0.18,-5.49,-3.30,15.26
16040,0.61,0.68,0.16,5.37,1.16,-0.18
16060,0.61,0.63,0.13,12.21,4.76,-12.94
16080,0.57,0.67,0.04,17.15,8.18,-26.43
16100,0.53,0.78,0.01,22.34,5.80,-40.71
16120,0.50,0.78,-0.00,22.89,5.37,-46.14
16140,0.46,0.87,-0.00,23.38,5.31,-51.57
16160,0.43,0.91,0.02,24.84,4.27,-50.48
16180,0.45,0.78,-0.09,19.84,6.59,-53.04
16200,0.40,0.93,-0.08,13.55,5.31,-59.57
16220,0.30,1.06,-0.01,13.18,5.74,-59.69
16240,0.33,0.98,0.08,18.19,8.24,-53.96
16260,0.26,1.04,-0.03,21.42,15.63,-50.23
16280,0.32,0.95,-0.11,19.65,15.63,-48.28
16300,0.34,0.87,-0.12,12.51,19.65,-49.74
16320,0.29,0.94,-0.03,9.70,22.71,-57.50
16340,0.30,1.15,0.08,14.10,24.17,-63.35
16360,0.02,1.36,-0.31,34.42,41.87,-52.55
16380,0.33,1.08,-0.24,38.45,16.24,-29.48
16400,0.16,1.11,-0.16,26.06,11.54,-24.41
16420,0.16,1.05,-0.08,0.49,3.66,-12.82
16440,0.18,1.01,-0.10,-1.10,3.78,-11.05
16460,0.18,1.00,-0.12,1.40,4.39,-11.96
16480,0.18,0.98,-0.15,2.69,4.58,-13.61
16500,0.17,0.99,-0.14,2.99,2.44,-12.70
16520,0.16,0.99,-0.14,1.89,1.04,-10.50
16540,0.16,0.99,-0.15,-0.24,1.53,-7.93
16560,0.15,1.00,-0.13,-1.71,2.01,-6.77
16580,0.15,1.01,-0.12,-1.53,1.77,-5.13
16600,0.16,1.00,-0.12,1.04,0.79,-3.23
16620,0.15,1.00,-0.14,3.54,0.12,-2.87
16640,0.16,0.99,-0.15,2.56,-0.92,-2.14
16660,0.16,0.99,-0.16,0.98,-0.85,-2.44
16680,0.16,0.99,-0.15,-2.50,-0.43,-3.85
16700,0.17,0.99,-0.15,-1.46,-0.31,-4.64
16720,0.16,0.99,-0.15,-1.10,-0.12,-6.29
16740,0.15,1.00,-0.14,-2.08,-0.18,-7.32
16760,0.15,1.00,-0.14,-2.56,0.00,-6.71
16780,0.14,1.00,-0.14,-2.38,0.49,-5.62
16800,0.15,1.00,-0.14,-1.95,0.31,-3.85
16820,0.15,1.00,-0.14,-1.22,0.37,-4.09
16840,0.15,1.00,-0.14,-0.92,0.00,-4.39
16860,0.14,1.00,-0.14,-1.46,-0.18,-4.39
16880,0.13,1.00,-0.14,-1.71,-0.12,-3.97
16900,0.14,1.00,-0.14,-1.71,-0.37,-3.17
16920,0.14,1.00,-0.14,-1.65,0.24,-2.93
16940,0.13,1.00,-0.14,-1.28,0.43,-2.26
16960,0.14,1.00,-0.14,-1.59,0.31,-1.53
16980,0.13,1.00,-0.13,-1.95,0.61,-0.49
17000,0.14,1.00,-0.14,-1.53,0.61,-0.18
17020,0.14,1.00,-0.14,-1.53,1.10,-0.12
17040,0.14,1.00,-0.14,-1.22,0.55,-0.49
17060,0.13,1.00,-0.14,-0.73,0.37,-0.55
17080,0.14,1.00,-0.14,-1.04,0.31,0.24
17100,0.13,1.00,-0.14,-1.16,0.79,0.49
17120,0.14,1.00,-0.14,-0.31,0.55,1.22
17140,0.14,1.00,-0.13,0.06,0.79,0.67
17160,0.14,1.00,-0.14,0.31,0.61,0.85
17180,0.14,1.00,-0.14,0.24,0.61,0.98
17200,0.14,1.00,-0.14,0.37,0.92,1.59
17220,0.14,1.00,-0.14,0.61,1.10,2.08
17240,0.15,1.00,-0.15,1.16,1.04,2.32
17260,0.14,1.00,-0.15,1.16,1.65,2.50
17280,0.15,1.00,-0.15,1.04,1.89,2.99
17300,0.14,1.00,-0.14,0.98,2.32,3.78
17320,0.13,1.00,-0.14,0.43,2.38,5.55
17340,0.16,0.99,-0.15,-0.43,2.08,7.26
17360,0.14,1.00,-0.14,-2.93,0.98,8.42
17380,0.14,1.00,-0.14,-5.74,-0.67,10.07
17400,0.12,1.01,-0.12,-7.87,-2.32,12.70
17420,0.12,1.02,-0.13,-12.39,-6.71,19.29
17440,0.18,1.02,-0.12,-23.32,-15.63,23.93
17460,0.19,1.05,-0.12,-22.34,-14.28,22.83
17480,0.19,1.06,-0.15,-18.68,-14.65,23.86
17500,0.15,1.15,-0.19,-15.14,-12.21,28.87
17520,0.20,1.14,-0.18,-14.16,-13.98,35.58
17540,0.19,1.17,-0.20,-19.04,-8.73,41.99
17560,0.21,1.12,-0.16,-25.94,-10.62,51.45
17580,0.25,1.04,-0.13,-30.88,-12.39,55.54
17600,0.27,1.01,-0.09,-34.73,-10.80,56.34
17620,0.30,0.99,-0.03,-37.05,-8.42,59.94
17640,0.31,0.95,-0.00,-36.93,-7.14,61.40
17660,0.30,0.99,-0.05,-34.55,-4.33,63.90
17680,0.43,0.84,0.07,-34.73,-7.20,69.09
17700,0.43,0.82,0.02,-34.55,-0.31,63.84
17720,0.48,0.80,0.10,-31.07,-4.58,57.62
17740,0.52,0.75,0.14,-22.03,-4.64,48.52
17760,0.57,0.72,0.16,-13.49,-3.72,39.18
17780,0.58,0.68,0.14,-7.02,-3.85,29.66
17800,0.59,0.67,0.12,14.47,-2.44,14.89
17820,0.59,0.73,0.10,4.76,-0.06,4.21
17840,0.59,0.71,0.08,8.12,1.53,-4.15
17860,0.59,0.70,0.03,9.52,4.21,-18.74
17880,0.54,0.77,0.02,10.68,5.49,-28.32
17900,0.52,0.85,0.07,12.76,3.60,-34.73
17920,0.50,0.84,0.11,16.11,4.21,-37.60
17940,0.46,0.90,0.08,23.50,6.04,-42.97
17960,0.46,0.85,0.03,26.92,5.68,-42.66
17980,0.45,0.84,-0.06,25.39,7.02,-44.92
18000,0.44,0.84,-0.09,20.75,4.94,-50.35
18020,0.32,0.97,-0.03,18.13,5.68,-53.04
18040,0.32,1.10,0.06,17.15,1.04,-49.99
18060,0.37,0.99,0.03,21.67,1.34,-38.39
18080,0.37,0.85,-0.06,21.91,11.47,-39.00
18100,0.36,0.73,-0.15,17.70,15.50,-45.59
18120,0.26,1.11,-0.08,6.41,12.51,-54.57
18140,0.21,1.16,-0.07,6.65,5.68,-46.39
18160,0.26,1.06,0.01,10.07,6.29,-37.96
18180,0.32,0.94,-0.01,18.49,20.02,-41.20
18200,0.36,0.95,-0.15,17.40,34.67,-55.48
18220,-0.06,1.36,-0.51,17.21,48.77,-63.29
18240,0.17,1.35,-0.07,27.10,2.32,-26.55
18260,0.18,1.02,-0.17,6.90,2.38,-9.70
18280,0.19,1.01,-0.11,-2.93,2.81,-8.36
18300,0.20,1.01,-0.09,-4.33,3.11,-8.54
18320,0.19,0.99,-0.12,-1.89,6.47,-12.15
18340,0.18,0.99,-0.13,-0.55,6.84,-14.28
18360,0.16,0.99,-0.12,-0.67,6.35,-15.87
18380,0.15,1.00,-0.11,-3.05,4.27,-13.55
18400,0.14,1.01,-0.11,-3.78,4.09,-11.23
18420,0.14,1.01,-0.10,-3.54,2.56,-8.54
18440,0.14,1.01,-0.09,-2.01,2.08,-5.62
18460,0.15,1.00,-0.11,-0.06,1.71,-3.91
18480,0.15,1.00,-0.11,0.92,0.92,-2.69
18500,0.15,1.00,-0.11,1.04,0.73,-2.20
18520,0.16,1.00,-0.13,1.59,1.10,-2.01
18540,0.15,1.00,-0.13,1.04,1.22,-2.14
18560,0.15,1.00,-0.11,0.92,0.49,-2.01
18580,0.15,1.00,-0.12,2.62,0.43,-1.16
18600,0.15,1.00,-0.12,1.46,0.37,-1.65
18620,0.14,1.00,-0.12,0.73,0.24,-1.46
18640,0.15,1.00,-0.12,0.85,0.12,-1.16
18660,0.15,1.00,-0.12,0.79,0.12,-0.98
18680,0.15,1.00,-0.13,0.24,0.06,-0.85
18700,0.14,1.00,-0.12,-0.18,0.00,-0.85
18720,0.15,1.00,-0.13,0.79,-0.37,-0.67
18740,0.14,1.00,-0.13,0.85,-0.18,-0.98
18760,0.15,1.00,-0.13,-0.37,0.18,-0.92
18780,0.15,1.00,-0.13,-1.16,0.43,-0.85
18800,0.15,1.00,-0.13,-1.71,0.61,-0.55
18820,0.15,1.00,-0.12,-2.20,0.79,-0.43
18840,0.15,1.00,-0.13,-1.22,0.43,-0.49
18860,0.15,1.00,-0.13,-0.79,0.37,-0.37
18880,0.15,1.00,-0.13,-0.98,0.43,-0.24
18900,0.15,1.00,-0.13,-1.10,0.61,-0.24
18920,0.15,1.00,-0.13,-1.10,0.73,0.12
18940,0.15,1.00,-0.13,-0.31,0.73,-0.12
18960,0.15,1.00,-0.13,0.12,0.61,0.00
18980,0.15,1.00,-0.13,0.18,0.67,0.12
19000,0.15,1.00,-0.13,0.61,0.79,0.12
19020,0.15,1.00,-0.13,0.61,1.04,0.24
19040,0.15,1.00,-0.13,0.67,0.98,0.24
19060,0.15,1.00,-0.13,-0.06,1.04,0.49
19080,0.15,1.00,-0.13,-0.55,1.28,0.61
19100,0.15,1.00,-0.13,-0.37,1.16,0.67
19120,0.15,1.00,-0.13,-0.55,1.04,0.92
19140,0.15,1.00,-0.13,-0.12,1.10,1.04
19160,0.15,1.00,-0.13,-0.31,1.40,1.10
19180,0.15,1.00,-0.13,-0.43,1.46,1.10
19200,0.14,1.00,-0.12,-0.73,1.40,1.28
19220,0.14,1.00,-0.12,-0.55,0.85,2.08
19240,0.14,1.00,-0.13,0.06,-0.12,3.17
19260,0.15,1.00,-0.13,-0.61,-2.50,6.23
19280,0.13,1.01,-0.13,-2.14,-4.46,7.69
19300,0.16,1.00,-0.14,-5.00,-7.32,10.01
19320,0.16,1.00,-0.12,-11.54,-5.62,11.72
19340,0.16,1.02,-0.12,-12.76,-4.33,14.47
19360,0.18,1.03,-0.10,-13.00,-4.70,17.94
19380,0.17,1.04,-0.14,-8.85,-6.77,23.56
19400,0.16,1.09,-0.17,-8.24,-8.42,27.83
19420,0.14,1.14,-0.18,-7.87,-10.25,32.10
19440,0.23,1.13,-0.15,-9.89,-9.89,39.43
19460,0.20,1.15,-0.19,-9.89,-7.39,45.96
19480,0.22,1.11,-0.21,-14.16,-10.74,52.25
19500,0.25,1.08,-0.18,-20.51,-15.01,56.46
19520,0.28,1.01,-0.12,-28.63,-14.77,58.23
19540,0.31,0.97,-0.06,-31.98,-13.43,60.42
19560,0.35,0.92,-0.03,-33.75,-11.05,59.94
19580,0.40,0.84,0.04,-31.19,-7.51,58.11
19600,0.43,0.85,0.03,-28.02,-4.39,55.18
19620,0.45,0.80,0.05,-23.99,-3.54,49.93
19640,0.48,0.77,0.06,-17.09,-2.93,39.79
19660,0.52,0.74,0.06,-12.21,-3.85,33.26
19680,0.52,0.76,0.06,-7.93,-2.99,25.21
19700,0.52,0.77,0.05,-3.11,-2.20,14.77
19720,0.51,0.82,0.03,-0.79,-1.34,8.91
19740,0.52,0.83,0.02,0.24,-1.28,5.13
19760,0.51,0.86,-0.01,-1.40,0.18,1.46
19780,0.53,0.82,-0.01,-2.75,0.73,-1.83
19800,0.56,0.71,0.02,-3.36,1.71,-8.06
19820,0.54,0.68,0.08,-1.40,5.00,-23.44
19840,0.46,0.91,0.09,4.09,5.07,-29.66
19860,0.45,0.95,0.11,8.85,1.77,-28.56
19880,0.44,0.95,0.05,12.88,3.42,-27.89
19900,0.47,0.84,-0.03,12.45,7.45,-30.21
19920,0.52,0.65,-0.06,9.77,7.39,-36.07
19940,0.42,0.81,-0.09,4.03,11.54,-51.70
19960,0.36,1.03,0.04,4.76,0.85,-48.40
19980,0.38,0.94,0.05,10.25,0.06,-42.54
20000,0.40,0.90,0.04,14.40,2.50,-44.01
20020,0.37,0.81,-0.05,11.05,10.19,-50.35
20040,0.27,0.99,-0.07,6.47,13.79,-56.40
20060,0.25,1.10,-0.05,6.10,9.34,-53.89
20080,0.31,0.94,-0.02,15.69,7.26,-47.49
20100,0.30,0.82,0.05,22.64,14.40,-54.44
20120,0.20,1.30,0.11,31.43,21.18,-62.56
20140,0.10,1.32,-0.25,45.47,37.48,-38.21
20160,0.33,0.96,-0.30,46.57,24.96,-27.22
20180,0.12,1.12,-0.12,31.01,14.65,-24.60
20200,0.13,1.04,-0.10,2.56,2.38,-10.25
20220,0.16,1.02,-0.09,-2.20,3.11,-7.57
20240,0.18,1.00,-0.11,-0.92,3.36,-5.86
20260,0.19,0.99,-0.14,1.40,4.33,-7.75
20280,0.18,0.98,-0.16,1.16,3.30,-9.34
20300,0.17,0.99,-0.16,0.31,2.20,-9.64
20320,0.16,1.00,-0.14,-1.89,1.28,-8.48
20340,0.16,1.00,-0.13,-3.54,0.43,-7.14
20360,0.15,1.00,-0.12,-3.60,0.37,-6.35
20380,0.16,1.00,-0.12,-1.89,0.61,-5.25
20400,0.16,1.00,-0.13,0.98,0.06,-4.52
20420,0.16,0.99,-0.14,0.61,-0.43,-4.33
20440,0.16,0.99,-0.15,0.06,-0.37,-4.33
20460,0.15,0.99,-0.15,-2.75,0.00,-4.82
20480,0.15,1.00,-0.13,-4.09,0.31,-4.64
20500,0.15,1.00,-0.13,-3.60,0.37,-4.94
20520,0.15,1.00,-0.13,-2.20,1.10,-4.46
20540,0.14,1.00,-0.13,-1.83,0.98,-3.85
20560,0.14,1.00,-0.13,-1.71,0.55,-2.32
20580,0.15,1.00,-0.13,-1.22,0.43,-1.10
20600,0.15,1.00,-0.14,-0.98,0.55,-0.73
20620,0.15,1.00,-0.13,-0.92,0.31,-1.16
20640,0.15,0.97,-0.13,-0.61,-0.18,-1.46
20660,0.14,1.00,-0.13,-0.85,0.06,-1.40
20680,0.14,1.00,-0.14,-0.49,-0.12,-1.04
20700,0.14,1.00,-0.13,-1.16,0.00,-0.73
20720,0.15,1.00,-0.13,-0.92,0.37,-0.92
20740,0.14,1.00,-0.14,-0.98,0.61,-0.61
20760,0.14,1.00,-0.13,-1.28,0.73,-0.18
20780,0.15,1.00,-0.13,-1.28,0.67,0.49
20800,0.15,1.00,-0.13,-0.67,0.61,0.06
20820,0.14,1.00,-0.13,-0.37,0.73,0.31
20840,0.14,1.00,-0.13,-0.43,0.79,0.73
20860,0.14,1.00,-0.13,-0.49,0.61,1.53
20880,0.15,1.00,-0.13,-1.28,1.04,2.01
20900,0.16,1.00,-0.13,-1.89,1.59,2.26
20920,0.16,1.00,-0.14,0.00,1.59,1.77
20940,0.15,1.00,-0.13,0.61,0.73,1.34
20960,0.15,1.00,-0.14,0.43,1.10,0.79
20980,0.15,1.00,-0.14,0.18,1.28,0.67
21000,0.15,1.00,-0.13,0.43,1.34,0.61
21020,0.15,1.00,-0.13,1.10,1.53,0.98
21040,0.16,1.00,-0.14,1.46,1.59,1.16
21060,0.15,1.00,-0.13,1.71,1.59,0.37
21080,0.16,1.00,-0.15,1.40,1.89,0.43
21100,0.16,1.00,-0.14,1.04,2.08,0.55
21120,0.15,1.00,-0.14,0.98,2.20,0.67
21140,0.16,0.99,-0.15,1.46,2.20,0.92
21160,0.16,0.99,-0.14,0.92,2.26,1.04
21180,0.13,1.00,-0.13,0.18,2.01,1.83
21200,0.13,1.00,-0.14,-0.37,1.22,5.37
21220,0.18,0.97,-0.18,-4.46,-0.55,5.43
21240,0.16,0.99,-0.15,-7.93,-0.49,3.05
21260,0.16,1.00,-0.12,-8.79,-1.59,3.17
21280,0.14,1.01,-0.12,-9.77,-3.85,4.70
21300,0.15,1.01,-0.12,-10.99,-5.98,8.12
21320,0.17,1.01,-0.13,-13.43,-7.32,10.62
21340,0.18,1.00,-0.13,-19.10,-6.84,10.31
21360,0.17,1.01,-0.13,-19.84,-5.62,10.07
21380,0.15,1.06,-0.11,-20.45,-4.94,12.70
21400,0.17,1.10,-0.08,-14.95,-3.97,19.41
21420,0.20,1.06,-0.11,-8.54,-3.23,24.54
21440,0.22,1.05,-0.13,-10.68,-1.65,26.25
21460,0.23,1.01,-0.15,-14.83,-2.75,29.11
21480,0.21,1.07,-0.13,-18.62,-5.19,29.79
21500,0.22,1.08,-0.07,-21.97,-7.69,33.33
21520,0.24,1.04,-0.05,-22.71,-5.62,38.02
21540,0.27,1.04,-0.04,-22.46,-2.81,38.39
21560,0.29,1.01,-0.02,-19.96,-2.20,39.18
21580,0.31,0.97,-0.01,-18.80,-1.65,41.02
21600,0.33,0.93,-0.01,-16.97,-2.14,39.67
21620,0.35,0.90,0.00,-16.11,-3.17,38.94
21640,0.37,0.92,-0.05,-17.58,-0.92,37.05
21660,0.41,0.86,-0.05,-19.10,-2.20,35.64
21680,0.41,0.92,-0.03,-20.69,-1.95,32.29
21700,0.40,0.98,0.02,-20.94,-5.86,31.43
21720,0.42,0.93,0.08,-16.78,-7.69,35.03
21740,0.45,0.90,0.06,-15.44,-5.80,34.30
21760,0.46,0.87,0.06,-13.49,-4.58,31.62
21780,0.48,0.82,0.04,-11.60,-4.52,28.20
21800,0.50,0.81,0.06,-9.46,-4.39,23.74
21820,0.51,0.84,0.09,-8.06,-4.88,19.41
21840,0.52,0.84,0.13,-2.44,-3.97,14.28
21860,0.55,0.76,0.12,2.50,-2.75,9.16
21880,0.57,0.73,0.15,6.47,-0.31,1.34
21900,0.57,0.69,0.11,10.31,5.00,-14.47
21920,0.53,0.74,0.02,11.05,8.24,-25.51
21940,0.51,0.79,0.03,13.73,7.02,-34.48
21960,0.49,0.84,0.08,19.65,5.86,-44.19
21980,0.45,0.88,0.12,25.70,4.46,-47.55
22000,0.43,0.85,0.05,33.02,6.77,-49.26
22020,0.41,0.81,-0.05,34.97,7.81,-50.05
22040,0.42,0.86,-0.17,22.46,10.31,-56.09
22060,0.26,1.09,-0.10,19.65,10.01,-59.45
22080,0.27,1.07,0.02,19.71,1.83,-47.24
22100,0.24,1.08,-0.00,22.77,2.01,-37.11
22120,0.31,0.92,-0.10,22.64,6.47,-31.74
22140,0.35,0.84,-0.17,16.66,11.66,-37.90
22160,0.24,0.99,-0.07,8.30,15.20,-48.77
22180,0.21,1.12,0.01,9.89,12.02,-44.37
22200,0.13,1.25,-0.09,15.69,15.75,-36.68
22220,0.16,1.08,-0.32,18.92,17.27,-20.87
22240,0.25,1.02,-0.21,6.53,5.68,-16.42
22260,0.31,0.92,-0.17,-3.05,9.83,-16.54
22280,0.06,1.18,0.00,-5.37,10.68,-19.10
22300,0.17,1.07,-0.05,2.93,-1.53,-2.56
22320,0.24,0.96,-0.12,4.03,-0.43,0.98
22340,0.25,0.94,-0.15,0.61,2.56,-4.88
22360,0.24,0.95,-0.14,-2.26,2.08,-9.95
22380,0.22,0.97,-0.14,-3.42,3.66,-14.95
22400,0.18,1.01,-0.10,-3.91,4.88,-16.97
22420,0.13,1.05,-0.06,-1.71,-0.24,-9.16
22440,0.19,1.01,-0.10,-0.98,-1.83,-2.62
22460,0.20,0.99,-0.11,-0.79,-0.92,-1.65
22480,0.20,0.99,-0.12,-0.92,-0.18,-2.14
22500,0.20,0.99,-0.11,-1.04,0.55,-3.72
22520,0.19,0.99,-0.11,-0.43,1.71,-5.43
22540,0.18,1.00,-0.11,0.06,2.50,-6.53
22560,0.18,1.00,-0.10,0.43,2.08,-5.74
22580,0.17,1.00,-0.11,0.12,1.40,-4.27
22600,0.18,0.99,-0.12,-0.31,1.95,-3.54
22620,0.19,0.99,-0.12,-0.18,2.93,-3.66
22640,0.18,1.00,-0.11,-0.06,2.93,-4.52
22660,0.18,1.00,-0.11,-0.06,2.50,-5.19
22680,0.18,1.00,-0.11,0.06,3.05,-5.25
22700,0.18,1.00,-0.12,-0.12,4.09,-5.55
22720,0.17,1.00,-0.11,-0.61,4.39,-5.37
22740,0.16,1.00,-0.10,-0.43,4.46,-5.00
22760,0.16,1.00,-0.11,1.04,3.97,-4.09
22780,0.16,1.00,-0.11,1.71,4.21,-3.48
22800,0.16,1.00,-0.12,1.71,3.48,-2.62
22820,0.16,1.00,-0.12,1.71,3.36,-2.56
22840,0.16,1.00,-0.12,2.14,2.44,-2.14
22860,0.16,1.00,-0.12,1.40,1.89,-1.89
22880,0.16,1.00,-0.13,0.73,1.53,-1.77
22900,0.16,1.00,-0.12,-0.24,1.22,-1.71
22920,0.16,1.00,-0.13,-1.28,0.85,-1.53
22940,0.16,1.00,-0.13,-2.01,0.79,-1.65
22960,0.16,1.00,-0.13,-2.81,0.85,-1.34
22980,0.16,1.00,-0.12,-2.44,0.55,-1.65
23000,0.16,1.00,-0.12,-2.20,0.67,-1.53
23020,0.16,1.00,-0.12,-1.77,0.85,-1.28
23040,0.16,1.00,-0.12,-0.92,0.79,-1.04
23060,0.15,1.00,-0.12,-0.92,0.92,-0.73
23080,0.15,1.00,-0.12,-0.98,0.61,-0.49
23100,0.16,1.00,-0.12,-0.92,0.61,-0.49
23120,0.16,1.00,-0.12,-0.92,0.67,-0.37
23140,0.16,1.00,-0.12,-0.55,0.55,-0.24
23160,0.16,1.00,-0.12,-0.49,0.61,-0.37
23180,0.16,1.00,-0.12,-0.73,0.49,-0.37
23200,0.15,1.00,-0.12,-0.61,0.18,-0.12
23220,0.16,1.00,-0.12,-0.67,-0.12,0.31
23240,0.16,1.00,-0.12,-0.79,-0.06,0.06
23260,0.16,1.00,-0.13,-0.98,0.06,-0.31
23280,0.16,1.00,-0.12,-1.34,0.55,-0.79
23300,0.16,1.00,-0.12,-0.98,0.55,-0.67
23320,0.16,1.00,-0.12,-0.55,0.24,-0.43
23340,0.16,1.00,-0.13,-0.18,-0.06,0.06
23360,0.16,1.00,-0.13,-0.55,0.31,-0.31
23380,0.16,1.00,-0.12,-0.85,0.67,-0.55
23400,0.16,1.00,-0.12,-0.73,0.61,-0.67
23420,0.16,1.00,-0.12,-0.55,0.98,-0.55
23440,0.16,1.00,-0.12,-0.67,0.79,-0.73
23460,0.16,1.00,-0.12,-0.61,0.92,-0.49
23480,0.16,1.00,-0.12,-0.55,0.79,-0.18
23500,0.16,1.00,-0.13,-0.31,0.55,0.00
23520,0.16,1.00,-0.13,-0.49,0.61,-0.18
23540,0.16,1.00,-0.13,-0.79,0.79,-0.12
23560,0.16,1.00,-0.13,-0.37,0.79,0.06
23580,0.15,1.00,-0.12,-0.67,0.73,0.43
23600,0.16,1.00,-0.12,-0.12,0.24,1.04
23620,0.16,1.00,-0.13,0.00,0.31,1.34
23640,0.16,1.00,-0.12,0.00,0.43,1.53
23660,0.16,1.00,-0.13,-0.12,-0.12,1.95
23680,0.15,1.00,-0.12,-0.24,-0.61,2.38
23700,0.15,1.00,-0.12,0.43,-1.16,3.72
23720,0.15,1.00,-0.12,-0.06,-2.26,6.04
23740,0.14,1.02,-0.12,-2.69,-5.19,11.41
23760,0.14,1.03,-0.12,-6.23,-7.57,16.85
23780,0.15,1.05,-0.10,-7.14,-8.48,21.79
23800,0.16,1.08,-0.11,-3.60,-8.79,29.66
23820,0.18,1.07,-0.16,0.49,-10.56,34.97
23840,0.23,1.06,-0.20,-0.43,-13.00,38.02
23860,0.23,1.10,-0.16,-5.19,-12.33,39.61
23880,0.22,1.09,-0.25,-8.91,-6.71,42.48
23900,0.26,1.04,-0.21,-14.59,-11.78,45.47
23920,0.27,1.03,-0.17,-23.80,-13.73,46.63
23940,0.30,1.00,-0.09,-28.32,-13.12,47.85
23960,0.31,0.97,-0.07,-30.33,-11.17,47.79
23980,0.34,0.94,-0.04,-30.76,-8.97,47.79
24000,0.36,0.90,-0.01,-30.88,-7.45,48.16
24020,0.39,0.90,-0.02,-30.15,-4.88,47.49
24040,0.40,0.86,-0.01,-28.87,-3.85,44.62
24060,0.45,0.86,0.01,-27.40,-5.31,40.65
24080,0.46,0.83,0.02,-25.45,-3.30,38.27
24100,0.49,0.80,0.03,-23.19,-3.66,31.43
24120,0.52,0.77,0.07,-18.19,-2.81,25.02
24140,0.53,0.76,0.08,-13.67,-2.14,17.15
24160,0.55,0.75,0.10,-8.24,-2.14,9.22
24180,0.60,0.61,0.15,0.73,1.53,-6.71
24200,0.59,0.59,0.12,6.23,6.65,-22.95
24220,0.55,0.63,0.06,11.84,9.16,-39.18
24240,0.46,0.77,0.03,21.30,8.42,-57.37
24260,0.46,0.83,0.03,24.72,5.37,-62.68
24280,0.37,0.91,0.02,28.50,6.10,-65.86
24300,0.35,0.84,-0.04,27.77,7.14,-64.21
24320,0.34,0.91,-0.08,24.41,9.70,-65.12
24340,0.29,0.92,-0.08,20.08,12.33,-67.57
24360,0.19,1.12,-0.02,17.76,14.77,-66.96
24380,0.20,1.15,0.02,21.67,14.65,-58.78
24400,0.24,1.19,-0.03,28.02,21.48,-53.10
24420,0.11,1.30,-0.34,34.00,36.62,-37.48
24440,0.23,1.03,-0.35,24.11,24.72,-29.42
24460,0.12,1.12,-0.15,18.01,18.01,-31.07
24480,0.07,1.15,-0.03,7.26,3.85,-9.22
24500,0.21,0.99,-0.12,3.17,1.83,-3.54
24520,0.22,0.98,-0.13,3.42,4.27,-4.03
24540,0.21,0.98,-0.16,6.10,6.65,-7.08
24560,0.22,0.97,-0.17,8.12,6.90,-8.61
24580,0.18,0.99,-0.17,3.36,7.08,-11.90
24600,0.15,1.00,-0.14,-2.01,4.64,-13.00
24620,0.16,1.00,-0.14,-3.42,1.71,-9.58
24640,0.16,1.00,-0.12,-3.23,0.67,-8.54
24660,0.18,1.00,-0.14,-0.85,0.31,-7.69
24680,0.16,1.00,-0.14,-0.43,-0.31,-8.36
24700,0.16,1.00,-0.14,-1.34,-0.67,-7.57
24720,0.16,1.00,-0.14,-1.59,-0.73,-6.41
24740,0.16,1.00,-0.14,-2.44,-0.55,-5.62
24760,0.16,1.00,-0.14,-2.56,-0.18,-4.94
24780,0.16,1.00,-0.14,-2.14,0.06,-4.33
24800,0.15,1.00,-0.13,-1.28,-0.06,-3.48
24820,0.15,1.00,-0.13,-0.79,0.06,-2.50
24840,0.15,1.00,-0.13,-0.55,0.06,-1.53
24860,0.16,1.00,-0.14,-0.37,0.06,-0.98
24880,0.16,1.00,-0.14,-0.61,0.06,-0.73
24900,0.16,0.99,-0.14,-1.22,0.12,-1.22
24920,0.16,0.99,-0.14,-1.53,0.37,-1.28
24940,0.15,1.00,-0.13,-1.65,0.43,-1.10
24960,0.16,1.00,-0.14,-1.22,0.37,-0.85
24980,0.15,1.00,-0.13,-1.04,0.49,-0.67
25000,0.16,1.00,-0.14,-0.98,0.85,-0.67
25020,0.16,1.00,-0.14,-0.61,0.67,-0.92
25040,0.15,1.00,-0.14,-0.61,0.67,-0.67
25060,0.15,1.00,-0.14,-0.92,0.73,-0.79
25080,0.16,1.00,-0.14,-1.04,0.61,-0.73
25100,0.16,1.00,-0.14,-0.67,0.49,-0.73
25120,0.16,1.00,-0.14,-0.55,0.49,-0.43
25140,0.15,1.00,-0.14,-0.67,0.73,-0.55
25160,0.16,1.00,-0.14,-0.43,0.49,-0.24
25180,0.16,1.00,-0.14,-0.24,0.43,-0.37
25200,0.15,1.00,-0.14,-0.37,0.73,-0.12
25220,0.16,0.99,-0.14,-0.18,0.61,0.00
25240,0.15,1.00,-0.14,-0.31,0.85,0.06
25260,0.15,1.00,-0.14,-0.37,1.16,0.37
25280,0.15,1.00,-0.14,-0.31,1.40,0.98
25300,0.16,1.00,-0.14,0.12,1.40,1.77
25320,0.16,0.99,-0.14,0.31,1.83,1.71
25340,0.16,1.00,-0.14,0.24,2.14,1.83
25360,0.16,0.99,-0.14,0.43,2.38,2.08
25380,0.16,1.00,-0.14,0.31,2.93,2.14
25400,0.13,1.00,-0.12,0.06,2.93,2.93
25420,0.15,0.99,-0.14,-0.43,2.08,6.23
25440,0.18,0.99,-0.15,-5.37,-1.10,8.61
25460,0.15,1.00,-0.13,-7.75,-1.89,7.75
25480,0.17,1.01,-0.12,-8.85,-4.82,8.79
25500,0.18,1.02,-0.11,-6.23,-7.57,13.18
25520,0.17,1.02,-0.11,-4.03,-5.13,15.93
25540,0.19,1.02,-0.15,-5.49,-8.18,20.87
25560,0.20,1.05,-0.17,-7.69,-10.80,25.57
25580,0.18,1.09,-0.19,-6.10,-10.74,28.81
25600,0.20,1.11,-0.18,-5.19,-12.70,33.20
25620,0.23,1.20,-0.18,-10.19,-11.29,44.13
25640,0.23,1.13,-0.24,-10.68,-9.28,54.08
25660,0.23,1.09,-0.25,-18.01,-12.27,59.27
25680,0.27,1.02,-0.16,-30.15,-14.65,62.44
25700,0.32,0.93,-0.10,-35.71,-13.24,59.75
25720,0.36,0.88,-0.06,-37.54,-12.33,57.86
25740,0.38,0.84,-0.00,-37.35,-8.91,53.47
25760,0.43,0.83,0.02,-34.30,-5.98,49.80
25780,0.44,0.81,0.02,-30.21,-4.03,46.08
25800,0.48,0.79,0.03,-27.22,-7.14,37.78
25820,0.50,0.76,0.05,-22.77,-4.70,30.46
25840,0.51,0.79,0.08,-19.35,-4.27,22.28
25860,0.52,0.78,0.07,-15.81,-2.01,15.56
25880,0.52,0.78,0.04,-12.21,-0.18,5.80
25900,0.53,0.79,0.04,-10.38,0.85,0.67
25920,0.55,0.76,0.05,-8.54,1.22,-5.25
25940,0.54,0.73,0.13,-3.11,1.53,-20.57
25960,0.48,0.85,0.16,3.05,3.60,-30.03
25980,0.45,0.90,0.17,11.90,3.36,-33.69
26000,0.45,0.88,0.04,22.03,4.88,-35.03
26020,0.46,0.80,-0.06,22.89,6.29,-36.74
26040,0.49,0.71,-0.13,17.09,7.14,-43.09
26060,0.48,0.99,-0.02,7.39,8.42,-57.92
26080,0.31,1.05,0.17,15.38,0.06,-53.47
26100,0.26,1.07,0.10,22.64,5.25,-44.80
26120,0.34,0.94,0.03,30.21,10.44,-40.71
26140,0.36,0.83,-0.13,26.37,17.33,-46.20
26160,0.32,0.79,-0.10,19.23,19.41,-55.24
26180,0.16,1.13,-0.08,15.75,12.33,-56.09
26200,0.18,1.24,-0.17,17.09,13.06,-40.22
26220,0.20,1.16,-0.19,15.99,16.30,-31.62
26240,0.30,1.00,-0.17,15.69,21.30,-46.63
26260,0.20,1.04,-0.21,20.69,30.64,-39.67
26280,0.13,1.12,-0.10,24.78,20.39,-37.48
26300,0.05,1.07,-0.10,13.67,6.16,-27.83
26320,0.15,1.01,-0.11,2.81,1.10,-13.12
26340,0.16,1.00,-0.11,1.46,0.18,-10.74
26360,0.16,0.99,-0.12,1.77,-1.22,-10.13
26380,0.18,0.99,-0.14,1.65,-2.93,-10.56
26400,0.18,0.98,-0.15,0.92,-2.20,-12.08
26420,0.16,0.99,-0.14,-0.06,-1.34,-13.18
26440,0.15,1.00,-0.13,-1.77,-0.73,-12.27
26460,0.14,1.00,-0.13,-2.01,-0.98,-10.74
26480,0.14,1.00,-0.12,-2.14,-0.49,-8.73
26500,0.15,1.01,-0.13,-0.61,-0.55,-7.20
26520,0.15,1.00,-0.13,-0.37,-1.34,-8.12
26540,0.15,1.00,-0.12,-0.67,-1.46,-8.30
26560,0.15,1.00,-0.14,-1.40,-2.08,-9.64
26580,0.13,1.00,-0.14,-1.83,-1.40,-9.89
26600,0.11,1.00,-0.13,-2.01,-0.92,-8.42
26620,0.12,1.00,-0.12,-2.14,-0.37,-4.64
26640,0.12,1.00,-0.12,-1.40,-0.06,-3.97
26660,0.12,1.00,-0.13,-0.79,-0.61,-3.54
26680,0.13,1.00,-0.13,-0.92,-0.49,-3.17
26700,0.12,1.00,-0.13,-1.04,-0.18,-2.50
26720,0.12,1.00,-0.13,-1.04,0.06,-1.53
26740,0.12,1.00,-0.13,-1.16,0.18,-0.61
26760,0.13,1.00,-0.13,-1.34,0.31,-0.24
26780,0.13,1.00,-0.13,-1.22,0.67,-0.79
26800,0.12,1.00,-0.13,-0.79,0.43,-1.10
26820,0.12,1.00,-0.13,-0.92,0.24,-0.43
26840,0.13,1.00,-0.13,-0.92,0.43,0.06
26860,0.13,1.00,-0.13,-0.92,0.24,-0.06
26880,0.11,1.00,-0.13,-0.85,0.49,0.49
26900,0.13,1.00,-0.13,-1.10,0.37,1.59
26920,0.13,1.00,-0.13,-0.49,0.79,1.71
26940,0.13,1.00,-0.13,-0.43,0.79,1.65
26960,0.12,1.00,-0.13,-0.37,1.10,1.89
26980,0.13,1.00,-0.13,-0.18,1.22,2.44
27000,0.13,1.00,-0.13,-0.31,1.77,3.11
27020,0.14,1.00,-0.13,-0.49,2.14,4.39
27040,0.15,1.00,-0.14,0.12,2.26,4.03
27060,0.13,1.00,-0.13,0.24,2.44,3.23
27080,0.15,1.00,-0.14,0.31,2.14,3.11
27100,0.13,1.00,-0.13,0.37,2.62,3.36
27120,0.13,1.00,-0.13,0.12,4.09,5.13
27140,0.15,1.00,-0.13,1.89,5.86,8.91
27160,0.12,1.00,-0.12,2.62,6.10,9.40
27180,0.13,0.99,-0.14,2.20,5.37,12.76
27200,0.16,0.99,-0.14,-2.01,1.10,12.51
27220,0.17,1.00,-0.13,-4.03,-0.98,13.73
27240,0.16,1.00,-0.14,-5.19,-1.95,13.06
27260,0.18,1.00,-0.14,-8.79,-6.96,14.10
27280,0.18,1.02,-0.11,-11.78,-7.20,14.83
27300,0.21,1.02,-0.11,-9.70,-5.80,17.09
27320,0.18,1.04,-0.16,-5.86,-2.08,21.36
27340,0.18,1.06,-0.21,-8.61,-7.63,25.51
27360,0.13,1.15,-0.18,-10.38,-10.38,29.05
27380,0.20,1.15,-0.12,-13.37,-11.11,40.59
27400,0.21,1.17,-0.20,-15.93,-11.35,48.10
27420,0.23,1.10,-0.24,-20.81,-11.05,55.05
27440,0.26,1.07,-0.24,-30.70,-13.06,57.13
27460,0.28,1.02,-0.12,-42.30,-15.26,60.18
27480,0.31,0.96,-0.04,-45.84,-12.57,63.11
27500,0.39,0.89,0.00,-47.12,-8.24,66.04
27520,0.41,0.79,0.05,-42.97,-3.66,61.77
27540,0.44,0.81,0.06,-40.16,-1.83,55.79
27560,0.47,0.79,0.09,-35.28,-1.89,51.33
27580,0.51,0.77,0.06,-29.85,-3.30,39.86
27600,0.51,0.79,0.10,-24.35,-4.46,34.30
27620,0.55,0.76,0.13,-19.53,-5.00,27.34
27640,0.55,0.78,0.14,-9.22,-4.46,15.26
27660,0.55,0.78,0.13,-3.72,-3.42,8.54
27680,0.54,0.79,0.10,-1.10,-1.59,2.50
27700,0.56,0.74,0.08,-0.37,0.24,-7.20
27720,0.57,0.73,0.06,-0.92,1.34,-16.66
27740,0.55,0.76,0.09,1.28,2.26,-26.25
27760,0.52,0.81,0.22,9.77,4.15,-38.70
27780,0.45,0.90,0.23,19.29,4.09,-43.64
27800,0.42,0.94,0.11,28.69,4.27,-42.97
27820,0.44,0.85,-0.02,32.96,2.93,-40.65
27840,0.48,0.76,-0.13,26.73,3.60,-49.13
27860,0.42,0.82,0.02,24.11,3.91,-59.02
27880,0.29,0.99,0.16,27.47,2.75,-59.14
27900,0.27,1.07,0.06,34.85,0.98,-47.00
27920,0.37,0.85,-0.13,34.00,6.77,-40.53
27940,0.36,0.90,-0.24,23.44,14.47,-48.65
27960,0.30,0.79,-0.03,12.45,14.16,-59.57
27980,0.07,1.22,0.09,15.56,14.71,-64.39
28000,0.16,1.31,-0.02,22.71,11.35,-45.59
28020,0.25,1.10,-0.26,26.06,21.97,-25.88
28040,0.21,1.04,-0.35,20.08,20.87,-22.83
28060,0.22,0.99,-0.21,11.47,13.55,-26.92
28080,0.05,1.14,-0.01,7.69,9.58,-24.66
28100,0.17,1.02,-0.09,2.56,-0.24,-9.22
28120,0.22,0.98,-0.12,-0.85,1.22,-5.49
28140,0.22,0.98,-0.13,2.01,4.27,-9.34
28160,0.21,0.99,-0.12,3.36,2.87,-12.33
28180,0.19,0.99,-0.12,4.39,3.54,-15.56
28200,0.15,0.99,-0.13,3.91,3.78,-16.78
28220,0.14,1.02,-0.10,2.14,3.54,-14.22
28240,0.16,1.00,-0.12,1.34,0.49,-9.22
28260,0.16,1.00,-0.13,1.71,-0.18,-6.84
28280,0.16,1.00,-0.13,1.10,-0.37,-6.65
28300,0.16,1.00,-0.12,0.49,0.73,-6.77
28320,0.16,1.00,-0.13,0.31,1.65,-6.84
28340,0.15,1.00,-0.12,-1.22,2.08,-6.41
28360,0.16,1.00,-0.12,-1.89,1.59,-5.07
28380,0.15,1.00,-0.12,-1.16,1.40,-4.58
28400,0.15,1.00,-0.12,-1.77,1.10,-3.05
28420,0.15,1.00,-0.12,-2.14,1.16,-2.38
28440,0.15,1.00,-0.12,-1.59,1.16,-1.83
28460,0.15,1.00,-0.13,-0.92,0.92,-1.16
28480,0.15,1.00,-0.12,-1.10,1.10,-0.85
28500,0.15,1.00,-0.13,-0.79,1.22,-1.04
28520,0.15,1.00,-0.13,-1.10,1.10,-1.10
28540,0.15,1.00,-0.13,-1.65,1.16,-1.40
28560,0.15,1.00,-0.12,-1.65,0.98,-1.28
28580,0.15,1.00,-0.12,-1.16,1.28,-1.40
28600,0.15,1.00,-0.13,-1.04,0.73,-1.16
28620,0.15,1.00,-0.12,-0.37,0.98,-1.16
28640,0.14,1.00,-0.12,-0.06,0.98,-1.16
28660,0.15,1.00,-0.13,-0.43,0.67,-0.79
28680,0.15,1.00,-0.13,-0.06,0.98,-0.85
28700,0.15,1.00,-0.13,0.37,0.85,-0.98
28720,0.14,1.00,-0.13,0.00,0.98,-1.10
28740,0.15,1.00,-0.13,0.37,0.67,-0.73
28760,0.15,1.00,-0.13,0.98,0.43,-0.55
28780,0.15,1.00,-0.13,0.73,0.49,-0.55
28800,0.14,1.00,-0.13,0.12,0.73,-0.43
28820,0.14,1.00,-0.13,-0.31,0.79,-0.37
28840,0.15,1.00,-0.13,-1.34,0.79,0.00
28860,0.15,1.00,-0.13,-2.26,0.85,0.00
28880,0.15,1.00,-0.13,-1.95,0.85,-0.12
28900,0.15,1.00,-0.13,-1.53,0.85,0.00
28920,0.15,1.00,-0.13,-1.59,0.67,0.06
28940,0.15,1.00,-0.13,-1.34,0.79,0.12
28960,0.14,1.00,-0.13,-1.22,0.73,0.55
28980,0.14,1.00,-0.12,-0.49,0.12,1.59
29000,0.16,0.99,-0.14,-0.61,-0.79,2.20
29020,0.16,1.00,-0.13,-2.14,-0.67,1.22
29040,0.14,1.00,-0.12,-2.44,-0.85,0.85
29060,0.15,1.00,-0.13,-2.32,-1.34,1.71
29080,0.15,1.00,-0.13,-3.17,-2.01,2.08
29100,0.16,1.00,-0.12,-3.66,-1.89,2.14
29120,0.17,0.99,-0.14,-2.99,-1.53,2.26
29140,0.17,1.00,-0.12,-3.36,-0.61,1.59
29160,0.16,1.00,-0.10,-0.98,0.00,1.59
29180,0.16,1.00,-0.13,2.56,0.37,1.95
29200,0.16,1.00,-0.13,1.40,0.12,1.95
29220,0.16,1.00,-0.12,0.06,0.18,2.01
29240,0.17,0.99,-0.14,0.43,0.31,2.08
29260,0.17,1.00,-0.13,-0.06,0.49,1.89
29280,0.16,1.00,-0.12,0.55,0.98,2.20
29300,0.17,1.00,-0.13,1.16,0.55,2.50
29320,0.17,0.99,-0.13,1.04,0.79,2.75
29340,0.17,1.00,-0.13,0.43,0.79,2.81
29360,0.18,1.00,-0.13,-0.49,0.43,2.93
29380,0.17,0.99,-0.13,-1.34,0.55,3.11
29400,0.18,0.99,-0.13,-1.95,0.49,3.05
29420,0.17,1.00,-0.13,-2.56,0.37,2.99
29440,0.17,1.00,-0.12,-3.23,-0.37,4.39
29460,0.18,1.00,-0.12,-4.58,-0.73,6.59
29480,0.18,1.00,-0.13,-5.49,-1.04,7.26
29500,0.19,0.99,-0.13,-5.37,-1.04,7.51
29520,0.19,0.99,-0.12,-5.43,-0.79,7.39
29540,0.21,0.99,-0.13,-5.98,-0.85,6.96
29560,0.20,0.99,-0.12,-5.86,-0.37,5.86
29580,0.21,0.99,-0.12,-6.41,-1.16,5.80
29600,0.22,0.98,-0.12,-6.90,-1.04,5.68
29620,0.21,0.99,-0.12,-7.93,-1.10,4.88
29640,0.21,0.99,-0.12,-8.36,-1.34,4.46
29660,0.21,1.00,-0.11,-9.09,-1.53,4.03
29680,0.21,1.00,-0.11,-9.95,-1.95,4.70
29700,0.21,1.00,-0.11,-10.56,-2.44,4.70
29720,0.21,1.01,-0.11,-12.57,-3.97,6.53
29740,0.22,1.02,-0.09,-13.79,-4.46,7.87
29760,0.23,1.00,-0.10,-14.22,-3.78,9.52
29780,0.23,1.02,-0.08,-15.75,-3.97,11.96
29800,0.24,1.00,-0.07,-16.60,-3.60,13.79
29820,0.25,0.99,-0.07,-16.66,-2.75,14.77
29840,0.26,0.98,-0.06,-18.49,-2.26,13.73
29860,0.25,1.01,-0.04,-19.29,-2.99,13.55
29880,0.26,1.01,-0.01,-18.49,-3.42,15.08
29900,0.26,1.00,0.01,-15.01,-2.99,17.09
29920,0.26,1.03,0.01,-9.28,-1.77,18.92
29940,0.28,1.01,0.02,-4.58,-2.26,21.30
29960,0.29,1.00,-0.01,-1.10,-1.53,23.56
29980,0.30,1.00,-0.03,-0.12,-1.71,24.11
30000,0.31,1.00,-0.02,1.22,-2.32,25.88
30020,0.32,1.00,-0.01,1.65,-2.75,27.59
30040,0.34,0.97,-0.02,3.30,-2.93,30.46
30060,0.36,0.94,-0.03,2.50,-2.56,30.52
30080,0.37,0.92,-0.04,0.73,-1.83,29.17
30100,0.38,0.91,-0.06,-4.27,-1.65,26.12
30120,0.39,0.92,-0.05,-6.77,-1.71,24.41
30140,0.41,0.89,-0.03,-8.06,-2.32,23.32
30160,0.42,0.90,-0.00,-9.46,-1.53,19.84
30180,0.42,0.92,0.01,-8.12,-1.28,18.49
30200,0.43,0.91,0.03,-5.86,-1.22,17.70
30220,0.43,0.93,0.02,-3.17,-0.24,16.11
30240,0.44,0.90,0.01,-1.34,-0.31,15.56
30260,0.44,0.91,-0.02,-1.34,0.37,14.22
30280,0.45,0.91,-0.03,-2.38,0.37,12.82
30300,0.45,0.91,-0.01,-3.11,0.00,12.51
30320,0.46,0.90,-0.00,-3.91,-0.06,12.08
30340,0.46,0.92,-0.00,-5.43,0.00,11.54
30360,0.47,0.92,0.00,-5.25,-0.43,12.02
30380,0.47,0.90,-0.01,-5.92,0.00,12.21
30400,0.48,0.90,-0.00,-6.65,-0.24,11.11
30420,0.49,0.89,0.02,-6.10,-0.92,11.41
30440,0.49,0.89,0.02,-5.74,-0.61,10.74
30460,0.50,0.87,0.01,-5.31,-0.79,9.95
30480,0.50,0.88,0.01,-5.55,-0.55,8.30
30500,0.51,0.86,0.01,-5.86,-0.55,7.26
30520,0.52,0.83,-0.00,-6.96,-0.49,5.31
30540,0.50,0.88,0.01,-8.12,0.12,2.81
30560,0.50,0.89,0.03,-8.48,-0.49,2.99
30580,0.51,0.87,0.03,-8.79,-0.43,2.93
30600,0.50,0.90,0.04,-8.97,0.06,2.26
30620,0.51,0.89,0.03,-9.22,0.06,2.56
30640,0.52,0.85,0.02,-10.25,-0.06,2.38
30660,0.53,0.84,0.04,-11.90,0.98,-0.49
30680,0.54,0.81,0.08,-10.31,0.61,-3.30
30700,0.52,0.83,0.08,-7.69,1.46,-7.45
30720,0.52,0.87,0.10,-3.48,1.16,-11.41
30740,0.51,0.86,0.08,-0.79,0.85,-13.43
30760,0.51,0.88,0.08,1.65,1.04,-15.87
30780,0.49,0.88,0.08,3.85,1.89,-18.01
30800,0.45,0.97,0.07,7.08,1.71,-17.52
30820,0.45,1.00,0.05,8.30,1.04,-13.67
30840,0.48,0.94,0.04,9.16,1.04,-9.40
30860,0.48,0.88,0.03,9.40,1.95,-9.28
30880,0.47,0.89,0.03,9.58,2.26,-10.56
30900,0.47,0.90,0.03,9.34,1.59,-11.11
30920,0.49,0.85,0.03,10.01,1.16,-14.16
30940,0.48,0.83,0.03,10.38,1.65,-18.19
30960,0.45,0.89,0.01,11.47,2.56,-22.22
30980,0.44,0.92,0.00,12.51,0.98,-23.01
31000,0.44,0.88,-0.01,12.45,0.73,-23.44
31020,0.43,0.91,-0.01,12.08,1.83,-25.70
31040,0.42,0.89,0.02,12.33,2.81,-28.50
31060,0.39,0.91,-0.01,13.43,3.78,-29.79
31080,0.37,0.97,-0.04,12.94,2.93,-29.72
31100,0.39,0.90,-0.06,10.25,3.23,-28.69
31120,0.38,0.89,-0.04,8.36,6.23,-33.33
31140,0.30,1.00,0.06,9.34,5.62,-35.89
31160,0.28,1.09,0.02,15.81,4.82,-26.37
31180,0.34,0.95,-0.06,18.86,7.20,-22.58
31200,0.36,0.87,-0.10,17.64,10.07,-24.84
31220,0.33,0.89,-0.14,12.57,12.08,-33.26
31240,0.25,1.04,-0.11,6.53,8.85,-34.24
31260,0.22,1.10,-0.07,6.84,6.65,-28.81
31280,0.26,1.04,-0.06,9.34,4.52,-22.03
31300,0.31,0.93,-0.14,9.40,8.79,-21.06
31320,0.29,0.91,-0.13,6.41,11.84,-26.06
31340,0.17,1.10,-0.11,3.66,12.76,-28.08
31360,0.20,1.08,-0.12,4.70,5.86,-14.47
31380,0.25,1.01,-0.17,4.76,5.49,-11.05
31400,0.25,0.96,-0.17,0.43,6.10,-12.15
31420,0.22,1.00,-0.10,-4.70,10.38,-18.86
31440,0.08,1.14,-0.04,-0.37,7.93,-15.63
31460,0.21,1.02,-0.11,6.16,-1.04,-3.11
31480,0.24,0.97,-0.14,1.53,0.06,-4.03
31500,0.24,0.96,-0.13,-2.08,1.22,-6.47
31520,0.23,0.98,-0.11,-3.36,1.95,-9.58
31540,0.23,0.99,-0.10,-1.22,4.82,-12.88
31560,0.15,1.02,-0.09,0.92,5.19,-13.49
31580,0.18,1.01,-0.11,0.73,0.73,-8.48
31600,0.21,0.98,-0.12,-2.44,-0.31,-6.84
31620,0.21,0.99,-0.12,-2.50,0.12,-7.93
31640,0.19,1.00,-0.10,-1.59,0.79,-9.22
31660,0.18,1.00,-0.10,-0.37,1.34,-9.46
31680,0.17,1.01,-0.10,0.24,1.77,-9.03
31700,0.17,1.01,-0.11,-0.85,0.79,-6.65
31720,0.18,1.00,-0.10,-2.14,-0.24,-4.64
31740,0.18,1.00,-0.10,-2.26,0.98,-3.78
31760,0.18,1.00,-0.11,-1.46,1.22,-3.91
31780,0.16,1.00,-0.10,-0.73,1.46,-3.78
31800,0.17,1.00,-0.10,0.49,0.31,-2.26
31820,0.18,1.00,-0.11,-0.43,0.24,-1.10
31840,0.18,1.00,-0.11,-0.92,1.16,-1.65
31860,0.18,1.00,-0.11,-0.55,1.89,-2.44
31880,0.17,1.00,-0.11,-0.24,2.50,-2.56
31900,0.17,1.00,-0.11,0.12,2.08,-2.75
31920,0.17,1.00,-0.11,-0.18,1.71,-2.99
31940,0.17,1.00,-0.11,-0.43,2.93,-3.36
31960,0.17,1.00,-0.11,-0.37,2.08,-3.11
31980,0.17,1.00,-0.11,0.00,3.05,-3.17
32000,0.16,1.00,-0.11,0.55,4.09,-3.11
32020,0.16,1.00,-0.11,0.85,3.42,-2.69
32040,0.16,1.00,-0.11,1.46,3.11,-1.77
32060,0.16,1.00,-0.12,1.53,2.93,-1.22
32080,0.16,1.00,-0.11,1.59,2.87,-1.22
32100,0.16,1.00,-0.11,1.83,2.56,-1.16
32120,0.16,1.00,-0.12,2.01,2.50,-0.98
32140,0.16,1.00,-0.12,1.65,2.56,-1.04
32160,0.16,1.00,-0.12,1.53,2.20,-0.73
32180,0.16,1.00,-0.13,2.93,1.77,-0.12
32200,0.16,1.00,-0.12,2.26,1.65,-0.24
32220,0.16,0.99,-0.14,2.08,1.59,0.12
32240,0.16,1.00,-0.13,0.79,1.40,-0.43
32260,0.16,1.00,-0.13,1.28,1.22,-0.43
32280,0.16,1.00,-0.13,1.10,1.40,-0.43
32300,0.16,1.00,-0.13,-0.31,1.59,-0.98
32320,0.16,1.00,-0.13,-0.98,1.65,-0.92
32340,0.16,1.00,-0.13,-1.53,1.28,-0.85
32360,0.16,1.00,-0.13,-2.08,0.98,-0.55
32380,0.16,1.00,-0.13,-2.50,1.04,-0.92
32400,0.16,1.00,-0.13,-2.62,1.53,-1.16
32420,0.16,1.00,-0.13,-2.08,1.10,-0.73
32440,0.16,1.00,-0.13,-1.34,1.04,-0.61
32460,0.16,1.00,-0.13,-1.65,0.98,-0.79
32480,0.16,1.00,-0.13,-1.53,1.04,-0.79
32500,0.16,1.00,-0.13,-1.65,0.49,-0.49
32520,0.16,1.00,-0.13,-1.77,0.67,-0.43
32540,0.16,1.00,-0.13,-1.40,0.79,-0.55
32560,0.16,1.00,-0.13,-1.10,0.92,-0.49
32580,0.16,1.00,-0.13,-1.28,0.73,-0.55
32600,0.16,1.00,-0.13,-0.92,0.79,-0.43
32620,0.16,1.00,-0.13,-1.22,0.61,-0.24
32640,0.16,1.00,-0.13,-1.40,0.49,-0.31
32660,0.16,1.00,-0.13,-1.65,0.55,-0.43
32680,0.16,1.00,-0.12,-1.46,0.18,-0.18
32700,0.15,1.00,-0.12,-1.28,-0.31,0.73
32720,0.16,1.00,-0.13,-1.65,-1.22,1.65
32740,0.17,0.99,-0.13,-2.62,-1.10,1.59
32760,0.17,1.00,-0.12,-3.05,-0.55,1.22
32780,0.16,1.00,-0.12,-2.69,-0.24,1.10
32800,0.15,1.00,-0.12,-1.83,-0.37,1.95
32820,0.16,1.00,-0.13,-2.08,-0.79,2.44
32840,0.17,1.00,-0.12,-3.30,-1.71,3.05
32860,0.17,1.00,-0.12,-3.97,-1.77,4.03
32880,0.17,1.00,-0.12,-3.97,-1.04,4.27
32900,0.17,1.00,-0.12,-3.78,-0.92,4.33
32920,0.18,1.00,-0.12,-3.60,-0.85,4.52
32940,0.18,1.00,-0.11,-3.36,-0.73,3.78
32960,0.18,1.00,-0.11,-2.87,-0.18,3.97
32980,0.17,1.01,-0.10,-2.56,-0.43,4.94
33000,0.18,1.00,-0.11,-1.95,-1.34,8.24
33020,0.19,1.00,-0.12,-2.20,-2.01,9.58
33040,0.19,1.00,-0.12,-3.54,-1.89,10.31
33060,0.20,1.00,-0.12,-4.94,-0.92,10.86
33080,0.20,1.00,-0.13,-5.74,-1.59,11.41
33100,0.19,1.03,-0.11,-6.04,-2.08,11.96
33120,0.19,1.05,-0.11,-5.49,-4.15,15.01
33140,0.22,1.04,-0.10,-4.76,-5.07,18.68
33160,0.21,1.08,-0.10,-5.37,-4.03,20.69
33180,0.24,1.05,-0.14,-5.25,-3.48,25.70
33200,0.24,1.03,-0.12,-6.16,-4.76,28.44
33220,0.26,1.01,-0.13,-7.69,-5.25,30.52
33240,0.27,1.01,-0.11,-9.77,-6.53,31.62
33260,0.29,0.99,-0.09,-10.62,-7.32,33.08
33280,0.31,0.96,-0.08,-11.96,-6.84,33.08
33300,0.31,0.97,-0.09,-13.18,-5.92,31.92
33320,0.32,0.98,-0.08,-15.14,-5.25,32.23
33340,0.34,0.94,-0.07,-17.09,-5.92,32.90
33360,0.36,0.91,-0.05,-17.88,-5.98,16.36
33380,0.38,0.92,-0.04,-18.49,-4.15,29.66
33400,0.39,0.92,-0.02,-18.74,-3.78,28.75
33420,0.40,0.90,-0.01,-17.82,-2.62,27.77
33440,0.42,0.88,-0.01,-16.66,-1.10,24.54
33460,0.43,0.90,-0.02,-17.03,0.49,21.97
33480,0.44,0.91,-0.01,-17.46,-1.16,19.71
33500,0.45,0.88,0.02,-16.97,-0.67,19.84
33520,0.44,0.91,0.01,-15.87,-0.24,17.33
33540,0.44,0.92,0.02,-15.32,0.31,17.46
33560,0.45,0.94,0.01,-13.55,0.37,17.21
33580,0.47,0.92,0.02,-12.39,-1.34,18.31
33600,0.47,0.90,0.02,-11.90,-0.98,18.19
33620,0.49,0.88,0.06,-11.17,-1.46,16.72
33640,0.49,0.88,0.08,-9.22,-0.73,14.83
33660,0.50,0.87,0.09,-7.14,-0.55,13.06
33680,0.52,0.82,0.06,-4.21,0.00,8.00
33700,0.54,0.78,0.05,-2.14,-0.31,2.50
33720,0.55,0.76,0.09,0.61,-0.43,-3.48
33740,0.53,0.79,0.10,3.05,1.16,-14.04
33760,0.52,0.79,0.05,7.39,2.32,-19.47
33780,0.51,0.81,0.01,7.81,2.62,-25.57
33800,0.48,0.86,0.02,8.85,2.08,-30.70
33820,0.44,0.94,0.05,10.56,2.01,-34.30
33840,0.44,0.94,0.08,13.92,1.16,-33.02
33860,0.44,0.89,0.04,17.52,2.93,-32.35
33880,0.45,0.84,-0.00,20.32,4.21,-35.40
33900,0.39,0.97,-0.03,20.26,6.35,-38.51
33920,0.36,1.02,0.00,22.09,4.21,-36.62
33940,0.35,0.93,0.03,25.94,4.88,-31.62
33960,0.34,0.97,-0.01,28.63,5.86,-30.21
33980,0.37,0.87,-0.13,26.31,7.57,-28.08
34000,0.30,1.00,-0.17,16.17,10.56,-34.61
34020,0.31,1.04,-0.04,13.73,4.52,-32.53
34040,0.31,0.98,-0.01,15.50,7.08,-28.69
34060,0.27,1.00,-0.01,20.26,8.30,-24.72
34080,0.28,0.97,-0.16,18.55,10.50,-21.61
34100,0.29,0.99,-0.20,11.90,10.19,-22.52
34120,0.29,0.98,-0.15,7.81,8.30,-23.38
34140,0.29,0.96,-0.10,5.92,11.54,-25.57
34160,0.27,0.95,-0.11,6.10,13.61,-26.92
34180,0.25,1.02,-0.19,5.07,14.65,-26.18
34200,0.19,1.10,-0.19,0.98,11.66,-23.56
34220,0.22,1.05,-0.14,0.06,8.42,-18.31
34240,0.25,0.99,-0.15,0.18,8.06,-16.60
34260,0.27,0.98,-0.18,-1.46,12.45,-21.97
34280,0.18,1.02,-0.16,0.37,13.79,-25.45
34300,0.10,1.11,-0.07,2.08,7.45,-21.48
34320,0.19,1.01,-0.11,-0.61,0.43,-8.85
34340,0.21,1.00,-0.13,0.24,0.85,-7.08
34360,0.20,0.99,-0.13,1.22,1.95,-7.32
34380,0.20,0.98,-0.15,-0.43,3.30,-9.40
34400,0.20,0.99,-0.14,-1.34,3.85,-11.66
34420,0.18,1.00,-0.13,-1.40,5.25,-12.82
34440,0.16,1.01,-0.12,-1.59,2.01,-12.33
34460,0.16,1.00,-0.13,-1.89,0.98,-10.99
34480,0.16,1.00,-0.13,-1.83,0.37,-9.70
34500,0.15,1.00,-0.12,-2.14,0.49,-8.91
34520,0.15,1.00,-0.12,-2.38,-0.06,-7.26
34540,0.15,1.00,-0.13,-2.44,0.31,-6.29
34560,0.15,1.00,-0.12,-2.20,0.37,-5.37
34580,0.15,1.00,-0.13,-1.40,0.37,-4.94
34600,0.15,1.00,-0.13,-1.16,0.18,-4.58
34620,0.15,1.00,-0.13,-1.53,0.37,-4.39
34640,0.15,1.00,-0.13,-1.34,0.37,-4.03
34660,0.15,1.00,-0.13,-1.34,0.55,-3.54
34680,0.15,1.00,-0.13,-1.34,0.43,-3.54
34700,0.15,1.00,-0.13,-1.28,0.31,-3.97
34720,0.14,1.00,-0.13,-1.46,0.61,-3.85
34740,0.14,1.00,-0.13,-2.01,0.67,-3.72
34760,0.14,1.00,-0.13,-2.01,0.18,-3.66
34780,0.14,1.00,-0.12,-2.01,-0.06,-3.66
34800,0.14,1.00,-0.13,-1.65,0.12,-3.30
34820,0.14,1.00,-0.12,-1.59,0.43,-2.93
34840,0.14,1.00,-0.13,-1.34,0.12,-2.81
34860,0.14,1.00,-0.13,-1.53,0.55,-2.87
34880,0.13,1.00,-0.12,-1.71,0.98,-2.93
34900,0.14,1.00,-0.13,-1.34,0.37,-2.01
34920,0.13,1.00,-0.12,-1.34,0.67,-2.08
34940,0.13,1.00,-0.12,-1.28,0.49,-1.89
34960,0.13,1.00,-0.13,-1.04,0.37,-1.71
34980,0.13,1.00,-0.13,-0.85,0.31,-1.40
35000,0.13,1.00,-0.12,-0.92,0.31,-0.98
35020,0.13,1.00,-0.13,-0.49,0.49,-0.55
35040,0.13,1.00,-0.13,-0.43,0.67,-0.24
35060,0.13,1.00,-0.12,-0.61,0.79,0.06
35080,0.13,1.00,-0.12,-0.49,0.79,0.06
35100,0.13,1.00,-0.13,-0.24,0.67,0.31
35120,0.13,1.00,-0.12,-0.31,0.73,0.61
35140,0.13,1.00,-0.12,-0.12,0.67,1.16
35160,0.13,1.00,-0.13,0.06,0.92,1.40
35180,0.13,1.00,-0.12,0.24,0.98,1.89
35200,0.14,1.00,-0.13,0.98,1.22,2.20
35220,0.13,1.00,-0.13,0.92,1.40,2.69
35240,0.13,1.00,-0.12,0.79,1.89,3.60
35260,0.14,1.00,-0.13,1.10,2.08,4.58
35280,0.15,1.00,-0.14,1.46,1.71,5.19
35300,0.14,1.00,-0.13,0.92,1.71,4.82
35320,0.13,1.00,-0.13,-0.79,1.53,6.41
35340,0.14,1.00,-0.14,-3.17,0.43,8.42
35360,0.16,0.99,-0.15,-5.68,-0.73,8.67
35380,0.16,1.00,-0.13,-7.02,-2.75,6.90
35400,0.15,1.00,-0.12,-5.55,-2.20,6.16
35420,0.14,1.00,-0.12,-7.20,-3.91,7.93
35440,0.12,1.03,-0.12,-10.86,-5.74,14.71
35460,0.18,1.02,-0.12,-19.17,-11.35,21.30
35480,0.20,1.04,-0.12,-18.68,-9.34,22.71
35500,0.19,1.04,-0.11,-16.17,-7.32,23.01
35520,0.19,1.07,-0.13,-11.78,-7.14,24.41
35540,0.20,1.06,-0.12,-10.68,-7.93,27.16
35560,0.19,1.14,-0.18,-12.88,-5.98,30.88
35580,0.21,1.15,-0.14,-19.96,-8.36,41.44
35600,0.21,1.13,-0.17,-25.51,-7.26,47.85
35620,0.23,1.11,-0.14,-32.23,-8.61,52.80
35640,0.29,0.97,-0.09,-40.22,-8.42,59.45
35660,0.35,0.89,-0.03,-43.40,-7.26,60.91
35680,0.28,0.99,-0.03,-42.36,-3.17,60.42
35700,0.33,0.99,0.00,-42.85,-5.74,68.73
35720,0.41,0.86,0.02,-44.07,-5.68,69.21
35740,0.48,0.76,0.06,-43.76,-5.68,64.64
35760,0.50,0.69,0.08,-36.07,-7.14,50.05
35780,0.54,0.73,0.21,-28.08,-5.43,40.65
35800,0.56,0.76,0.23,-19.29,-5.68,31.74
35820,0.57,0.73,0.26,-8.73,-2.26,17.40
35840,0.58,0.73,0.18,2.44,1.22,6.41
35860,0.56,0.72,0.14,6.65,3.60,-1.89
35880,0.54,0.75,0.10,9.03,4.46,-11.54
35900,0.52,0.84,0.05,9.28,2.75,-20.08
35920,0.48,0.91,0.07,9.46,3.11,-22.89
35940,0.49,0.89,0.10,10.86,2.50,-22.58
35960,0.47,0.89,0.14,15.69,3.85,-25.27
35980,0.46,0.90,0.14,19.41,4.21,-26.43
36000,0.47,0.86,0.05,21.91,4.70,-27.40
36020,0.49,0.78,-0.00,20.87,3.48,-33.57
36040,0.46,0.77,0.01,19.96,4.52,-41.81
36060,0.45,0.82,0.01,20.39,3.17,-48.89
36080,0.35,0.98,0.03,22.34,2.56,-52.12
36100,0.36,0.94,0.02,22.58,2.81,-49.26
36120,0.38,0.87,-0.01,21.73,4.76,-50.48
36140,0.35,0.81,-0.02,19.23,8.85,-56.64
36160,0.21,1.08,-0.02,19.35,11.78,-59.45
36180,0.20,1.12,-0.02,22.16,6.04,-50.42
36200,0.23,1.08,-0.00,25.51,6.84,-41.20
36220,0.29,0.97,-0.07,26.86,14.16,-39.43
36240,0.35,0.95,-0.13,24.29,21.18,-44.98
36260,0.12,1.22,-0.15,22.22,31.43,-44.62
36280,0.06,1.10,-0.18,26.18,20.02,-22.71
36300,0.19,1.04,-0.15,19.71,0.61,-9.46
36320,0.19,1.01,-0.13,9.09,1.04,-7.20
36340,0.21,0.99,-0.11,2.08,4.27,-7.81
36360,0.23,0.97,-0.13,2.87,7.26,-10.44
36380,0.21,0.98,-0.14,3.54,8.97,-15.08
36400,0.16,0.99,-0.14,2.99,9.83,-17.94
36420,0.13,1.01,-0.12,0.98,6.59,-17.03
36440,0.13,1.02,-0.10,-1.53,2.87,-13.73
36460,0.15,1.00,-0.11,-2.08,1.71,-8.91
36480,0.15,1.01,-0.11,-1.40,1.71,-7.51
36500,0.15,1.01,-0.11,-0.43,0.98,-5.43
36520,0.15,1.00,-0.12,0.79,0.61,-3.23
36540,0.15,1.00,-0.13,0.06,0.49,-2.75
36560,0.15,1.00,-0.13,-0.85,0.43,-2.93
36580,0.15,1.00,-0.13,-1.40,0.55,-2.93
36600,0.15,1.00,-0.12,-1.77,0.37,-2.69
36620,0.15,1.00,-0.11,-1.59,0.43,-2.62
36640,0.15,1.00,-0.12,15.56,0.12,-1.46
36660,0.15,1.00,-0.13,1.53,0.43,-0.92
36680,0.15,1.00,-0.13,0.61,0.18,-1.10
36700,0.15,1.00,-0.12,0.85,0.24,-0.85
36720,0.15,0.99,-0.14,2.20,0.06,-0.79
36740,0.15,1.00,-0.13,1.46,0.06,-1.10
36760,0.15,1.00,-0.12,1.95,-0.12,-1.65
36780,0.15,1.00,-0.13,1.10,-0.18,-2.08
36800,0.15,1.00,-0.13,0.06,0.12,-2.01
36820,0.15,1.00,-0.13,-0.24,0.00,-2.01
36840,0.15,1.00,-0.13,-0.61,0.24,-2.26
36860,0.15,1.00,-0.13,-0.67,0.18,-2.38
36880,0.15,1.00,-0.13,-0.49,0.12,-2.93
36900,0.14,1.00,-0.13,-0.98,-0.06,-2.81
36920,0.14,1.00,-0.13,-1.53,0.06,-2.56
36940,0.14,1.00,-0.13,-1.22,0.12,-1.77
36960,0.14,1.00,-0.13,-0.73,0.24,-1.28
36980,0.14,1.00,-0.13,-0.85,0.43,-0.61
37000,0.14,1.00,-0.13,-0.79,0.43,-0.37
37020,0.14,1.00,-0.13,-0.55,0.43,0.00
37040,0.14,1.00,-0.13,-0.79,0.43,0.00
37060,0.15,1.00,-0.13,-0.49,0.37,0.43
37080,0.14,1.00,-0.13,-0.73,0.61,0.49
37100,0.15,1.00,-0.13,-0.61,0.73,0.73
37120,0.14,1.00,-0.13,-0.31,0.85,0.49
37140,0.15,1.00,-0.13,-0.06,0.85,0.43
37160,0.15,1.00,-0.14,0.24,1.28,0.24
37180,0.15,1.00,-0.14,0.00,0.92,0.43
37200,0.14,1.00,-0.13,-0.43,1.10,0.85
37220,0.15,1.00,-0.14,-0.12,1.34,1.40
37240,0.15,1.00,-0.13,-0.06,1.59,1.83
37260,0.15,1.00,-0.14,0.55,1.46,1.77
37280,0.16,1.00,-0.14,0.92,1.46,1.89
37300,0.15,1.00,-0.14,0.49,1.71,1.77
37320,0.15,1.00,-0.14,0.37,1.77,1.83
37340,0.15,1.00,-0.14,-0.49,1.95,2.20
37360,0.15,1.00,-0.13,-1.28,1.71,2.44
37380,0.15,1.00,-0.14,-1.53,1.22,2.87
37400,0.14,0.99,-0.14,-4.09,-1.46,4.64
37420,0.16,0.99,-0.14,-7.57,-3.05,5.43
37440,0.16,1.00,-0.14,-9.64,-3.97,6.04
37460,0.12,1.02,-0.10,-12.76,-7.93,9.95
37480,0.13,1.04,-0.09,-16.72,-12.94,16.66
37500,0.14,1.05,-0.12,-17.70,-13.55,21.24
37520,0.18,1.06,-0.14,-18.74,-17.94,28.44
37540,0.17,1.12,-0.19,-12.39,-13.73,32.90
37560,0.22,1.10,-0.16,-8.73,-15.20,36.25
37580,0.23,1.14,-0.13,-8.73,-11.35,38.70
37600,0.24,1.06,-0.18,-12.51,-6.23,44.13
37620,0.24,1.06,-0.16,-17.40,-7.51,46.26
37640,0.28,1.02,-0.14,-22.46,-10.19,47.67
37660,0.30,1.00,-0.09,-27.28,-9.89,48.34
37680,0.30,1.03,-0.02,-27.89,-9.70,49.50
37700,0.29,1.01,0.07,-24.78,-8.54,53.71
37720,0.35,0.93,0.05,-16.24,-4.88,56.64
37740,0.43,0.82,0.02,-13.73,-4.33,54.20
37760,0.46,0.77,-0.05,-13.98,-1.16,48.65
37780,0.46,0.79,-0.03,-16.24,-3.23,36.44
37800,0.48,0.80,-0.00,-15.69,-5.19,32.10
37820,0.50,0.78,0.04,-14.89,-6.29,27.16
37840,0.52,0.76,0.05,-11.60,-3.30,16.36
37860,0.52,0.78,0.05,-8.73,-2.01,9.70
37880,0.52,0.82,0.07,-5.55,-1.16,3.36
37900,0.52,0.81,0.06,-2.87,0.24,-3.78
37920,0.52,0.81,0.08,1.10,1.46,-10.56
37940,0.49,0.87,0.07,4.33,2.81,-15.99
37960,0.46,0.93,0.04,7.45,2.75,-18.07
37980,0.46,0.92,0.01,8.91,3.30,-17.58
38000,0.49,0.82,-0.02,8.36,3.78,-18.74
38020,0.47,0.83,-0.02,6.29,5.37,-24.29
38040,0.40,0.96,0.06,9.40,2.81,-28.44
38060,0.40,0.98,0.05,12.33,1.16,-26.31
38080,0.42,0.92,0.02,14.53,2.32,-25.09
38100,0.47,0.76,-0.06,13.37,7.69,-29.36
38120,0.44,0.79,-0.08,11.05,8.85,-37.84
38140,0.27,1.09,0.01,11.35,6.84,-42.05
38160,0.33,1.00,-0.01,15.63,4.03,-30.15
38180,0.38,0.89,-0.05,15.93,5.37,-29.05
38200,0.40,0.80,-0.12,12.82,11.35,-34.61
38220,0.40,0.91,-0.05,8.00,13.24,-49.80
38240,0.17,1.20,0.05,12.70,7.87,-47.79
38260,0.22,1.14,0.01,20.45,5.49,-32.65
38280,0.30,0.98,-0.10,21.85,11.05,-27.16
38300,0.38,0.82,-0.23,14.65,15.63,-33.45
38320,0.44,0.82,-0.17,3.48,21.61,-49.74
38340,0.15,1.29,-0.24,-2.75,33.33,-57.50
38360,0.03,1.23,-0.06,7.02,3.85,-29.24
38380,0.19,1.05,-0.14,9.52,0.67,-12.88
38400,0.22,0.98,-0.17,-0.12,5.13,-11.84
38420,0.19,1.01,-0.09,-3.72,5.68,-14.77
38440,0.23,1.00,-0.05,-1.10,6.35,-16.11
38460,0.18,1.00,-0.08,1.10,9.34,-17.40
38480,0.14,1.02,-0.10,3.30,7.32,-15.44
38500,0.15,1.00,-0.13,3.91,5.86,-10.19
38520,0.14,1.01,-0.10,2.20,3.54,-8.00
38540,0.14,1.01,-0.09,1.89,2.50,-4.76
38560,0.16,1.00,-0.12,3.36,1.16,-2.87
38580,0.15,1.01,-0.10,3.97,0.79,-2.69
38600,0.16,1.00,-0.12,4.76,-0.06,-2.56
38620,0.16,1.00,-0.13,3.72,-0.92,-3.48
38640,0.16,1.00,-0.13,2.38,-2.44,-4.33
38660,0.16,0.99,-0.13,1.59,-4.21,-7.02
38680,0.15,1.00,-0.13,0.49,-5.74,-8.61
38700,0.15,1.00,-0.13,-0.31,-6.41,-8.30
38720,0.13,1.00,-0.11,-0.24,-6.47,-8.18
38740,0.13,1.00,-0.11,0.37,-7.26,-7.75
38760,0.13,1.00,-0.13,0.31,-9.64,-7.81
38780,0.15,1.00,-0.13,-0.06,-12.15,-9.95
38800,0.09,1.01,-0.10,1.04,-15.01,-11.54
38820,0.11,1.00,-0.12,1.65,-18.62,-10.38
38840,0.12,0.99,-0.15,1.40,-17.76,-8.18
38860,0.16,0.99,-0.16,-1.10,-8.61,-1.28
38880,0.16,1.00,-0.14,-2.08,-2.56,0.92
38900,0.12,1.00,-0.13,-2.20,1.04,2.08
38920,0.12,1.00,-0.12,-2.20,3.17,4.39
38940,0.14,1.02,-0.10,-2.32,5.92,7.39
38960,0.15,1.00,-0.12,-1.22,6.84,8.18
38980,0.16,1.00,-0.12,0.79,9.40,7.14
39000,0.17,0.99,-0.14,2.20,6.41,4.64
39020,0.15,1.00,-0.14,1.65,5.86,2.32
39040,0.15,1.00,-0.14,-0.85,5.25,2.44
39060,0.15,1.00,-0.13,-2.38,5.43,2.32
39080,0.15,1.00,-0.12,-3.91,4.52,2.44
39100,0.17,1.00,-0.12,-2.38,2.93,1.71
39120,0.16,1.00,-0.13,-1.46,1.95,0.24
39140,0.16,0.99,-0.14,-1.28,1.28,-0.24
39160,0.16,1.00,-0.13,-2.08,1.40,-0.43
39180,0.15,1.00,-0.13,-2.99,1.28,-0.24
39200,0.15,1.00,-0.12,-3.17,1.22,-0.18
39220,0.16,1.00,-0.12,-2.20,0.92,-0.06
39240,0.16,1.00,-0.13,-1.34,1.10,-0.06
39260,0.16,1.00,-0.13,-1.22,0.85,0.12
39280,0.16,1.00,-0.13,-1.28,0.92,0.31
39300,0.15,1.00,-0.12,-1.89,0.79,0.37
39320,0.15,1.00,-0.12,-2.14,0.49,0.55
39340,0.15,1.00,-0.12,-2.50,0.31,0.73
39360,0.16,1.00,-0.13,-3.54,-0.79,1.16
39380,0.15,1.00,-0.12,-4.03,-1.10,1.16
39400,0.15,1.00,-0.12,-4.15,-1.34,1.46
39420,0.15,1.00,-0.12,-4.82,-2.56,2.26
39440,0.14,1.00,-0.11,-5.80,-3.48,3.23
39460,0.16,1.00,-0.12,-6.90,-4.64,5.07
39480,0.15,1.01,-0.10,-8.73,-5.55,8.00
39500,0.15,1.02,-0.09,-10.13,-7.08,10.19
39520,0.18,1.01,-0.09,-10.62,-8.48,12.82
39540,0.19,1.00,-0.10,-11.11,-6.29,13.18
39560,0.16,1.02,-0.10,-14.89,-7.14,15.32
39580,0.20,1.03,-0.11,-17.58,-6.96,18.49
39600,0.21,1.02,-0.10,-16.30,-6.04,20.81
39620,0.20,1.10,-0.09,-10.93,-5.98,23.62
39640,0.22,1.07,-0.07,-7.75,-7.45,27.59
39660,0.20,1.08,-0.08,-6.59,-6.77,29.60
39680,0.24,1.06,-0.14,-8.24,-2.81,34.42
39700,0.25,1.03,-0.16,-13.98,-4.15,36.68
39720,0.28,1.00,-0.16,-20.39,-5.49,36.93
39740,0.27,1.04,-0.06,-27.89,-8.30,37.78
39760,0.28,1.00,0.00,-28.63,-7.32,41.08
39780,0.31,0.98,-0.01,-28.69,-4.33,42.18
39800,0.35,0.92,0.02,-28.14,-3.23,43.40
39820,0.39,0.89,0.04,-26.86,-1.83,42.36
39840,0.36,0.93,0.01,-25.57,0.06,40.28
39860,0.41,0.89,0.02,-25.82,-0.73,40.71
39880,0.44,0.84,0.04,-25.63,-0.18,38.27
39900,0.47,0.81,0.06,-24.11,-1.16,34.18
39920,0.48,0.81,0.09,-18.25,-2.14,25.63
39940,0.49,0.81,0.15,-13.12,-2.50,19.65
39960,0.49,0.80,0.16,-8.00,-1.95,13.85
39980,0.48,0.84,0.11,-4.03,0.31,5.80
40000,0.48,0.86,-0.02,-6.71,0.79,3.36
40020,0.52,0.80,-0.07,-13.12,0.49,0.79
40040,0.54,0.72,0.00,-18.01,0.61,-12.15
40060,0.49,0.78,0.20,-15.01,0.00,-23.25
40080,0.43,0.92,0.28,-6.65,-1.95,-28.81
40100,0.44,0.92,0.22,0.00,-1.95,-29.11
40120,0.45,0.88,0.08,3.17,1.16,-32.65
40140,0.42,0.91,0.04,5.13,4.88,-36.62
40160,0.43,0.87,0.10,8.30,7.39,-40.83
40180,0.35,0.95,0.15,14.40,3.05,-44.92
40200,0.31,1.01,0.10,18.62,0.67,-42.85
40220,0.34,1.00,0.06,19.90,-0.31,-37.90
40240,0.33,1.00,0.07,24.78,1.89,-36.01
40260,0.36,0.88,0.06,29.30,4.27,-34.91
40280,0.29,0.87,0.05,30.88,9.09,-39.67
40300,0.22,1.04,-0.08,25.09,3.11,-37.05
40320,0.25,1.06,-0.11,17.88,4.09,-31.68
40340,0.29,1.00,-0.09,13.79,2.87,-29.60
40360,0.34,0.87,-0.05,11.78,6.84,-37.66
40380,0.17,1.09,0.14,14.71,11.72,-48.89
40400,0.05,1.41,0.11,23.86,9.89,-40.22
40420,0.14,1.16,-0.06,34.55,13.61,-6.04
40440,0.25,0.95,-0.24,35.83,18.43,-6.10
40460,0.27,0.92,-0.26,27.28,17.21,-12.70
40480,0.20,1.00,-0.13,20.57,16.05,-22.83
40500,0.17,1.05,-0.05,22.03,15.20,-22.83
40520,0.15,1.05,-0.07,17.64,8.61,-17.03
40540,0.15,1.02,-0.13,14.77,7.63,-12.51
40560,0.16,1.00,-0.14,7.57,4.21,-8.12
40580,0.16,0.99,-0.13,3.60,2.01,-7.81
40600,0.16,1.00,-0.12,1.71,1.28,-8.24
40620,0.17,1.00,-0.12,0.79,-1.10,-10.13
40640,0.15,1.00,-0.12,0.49,-0.98,-11.29
40660,0.16,0.99,-0.14,0.18,-2.08,-11.35
40680,0.13,1.00,-0.12,-1.04,-3.11,-12.76
40700,0.16,1.00,-0.13,-1.65,-2.75,-11.11
40720,0.15,1.00,-0.13,-2.20,-1.77,-12.57
40740,0.14,1.00,-0.12,-2.38,-1.65,-13.43
40760,0.15,1.01,-0.11,-1.95,-2.93,-15.32
40780,0.15,1.01,-0.11,-0.37,-3.54,-17.52
40800,0.12,1.01,-0.11,0.98,-3.05,-18.74
40820,0.13,1.01,-0.11,1.59,-2.14,-17.64
40840,0.10,1.00,-0.13,2.08,-0.92,-17.40
40860,0.09,1.00,-0.13,1.95,-0.31,-14.83
40880,0.07,1.00,-0.13,1.77,-1.59,-14.16
40900,0.10,1.00,-0.13,1.46,-2.01,-12.39
40920,0.10,1.00,-0.13,1.40,-0.73,-12.39
40940,0.07,1.00,-0.12,1.34,-0.67,-13.24
40960,0.06,1.00,-0.13,0.85,-0.67,-12.76
40980,0.07,1.00,-0.14,0.61,-0.49,-11.05
41000,0.04,0.99,-0.13,0.43,0.12,-9.34
41020,0.05,0.99,-0.14,-0.55,0.73,-6.59
41040,0.05,1.00,-0.14,-1.28,0.55,-5.19
41060,0.04,1.00,-0.13,-2.20,0.37,-2.93
41080,0.04,1.00,-0.13,-2.99,0.24,-0.79
41100,0.06,1.00,-0.13,-3.54,0.79,1.83
41120,0.05,1.00,-0.12,-3.17,0.98,2.26
41140,0.05,1.01,-0.12,-3.36,0.49,4.09
41160,0.08,1.01,-0.13,-2.56,-0.12,4.82
41180,0.05,1.00,-0.13,-2.32,0.00,5.37
41200,0.08,1.00,-0.13,-3.11,0.31,8.79
41220,0.08,1.01,-0.12,-2.99,1.04,8.73
41240,0.07,1.00,-0.12,-2.81,1.34,8.91
41260,0.04,0.99,-0.13,-4.27,1.95,13.06
41280,0.05,1.00,-0.12,-5.25,4.76,20.08
41300,0.15,1.02,-0.11,-4.39,6.84,21.00
41320,0.10,1.00,-0.12,-2.93,4.03,9.83
41340,0.12,1.01,-0.12,-3.60,5.62,11.17
41360,0.15,1.01,-0.12,-3.54,3.78,10.25
41380,0.10,1.00,-0.11,-2.38,5.86,9.77
41400,0.15,1.02,-0.09,-0.12,6.90,12.88
41420,0.21,0.98,-0.16,1.40,2.14,7.45
41440,0.13,1.00,-0.11,0.31,2.44,2.14
41460,0.14,1.00,-0.13,-0.55,1.28,2.26
41480,0.13,1.01,-0.11,-1.04,1.53,2.26
41500,0.14,1.00,-0.12,-1.10,1.89,2.81
41520,0.14,1.00,-0.12,-0.61,2.38,3.30
41540,0.14,1.00,-0.12,-0.49,2.32,2.62
41560,0.13,1.00,-0.12,-1.10,2.08,4.21
41580,0.13,1.00,-0.12,-1.40,1.71,6.04
41600,0.11,1.00,-0.11,-2.44,0.67,6.84
41620,0.15,0.99,-0.13,-3.85,-2.81,9.46
41640,0.18,1.01,-0.10,-3.72,-2.20,6.29
41660,0.16,1.00,-0.12,-3.23,-0.79,4.39
41680,0.16,1.00,-0.11,-3.17,-0.49,3.78
41700,0.16,1.00,-0.11,-4.15,-2.20,4.76
41720,0.18,1.00,-0.12,-4.46,-2.93,4.82
41740,0.18,1.00,-0.10,-3.11,-2.62,4.09
41760,0.18,1.00,-0.12,-1.16,-0.61,3.05
41780,0.18,1.00,-0.11,-1.71,0.18,2.38
41800,0.17,1.00,-0.11,-2.56,0.67,2.32
41820,0.16,1.00,-0.12,-4.58,-0.49,2.87
41840,0.18,1.00,-0.11,-7.39,-1.95,3.54
41860,0.18,1.00,-0.10,-7.51,-1.59,3.54
41880,0.16,1.01,-0.09,-6.16,-1.04,4.46
41900,0.17,1.01,-0.08,-6.90,-1.95,6.47
41920,0.15,1.02,-0.09,-8.30,-1.46,8.91
41940,0.18,1.01,-0.10,-11.54,-3.54,12.76
41960,0.21,1.01,-0.11,-13.31,-4.09,13.43
41980,0.21,1.00,-0.11,-14.22,-4.21,12.51
42000,0.19,1.05,-0.09,-13.67,-4.58,13.73
42020,0.22,1.02,-0.11,-12.70,-3.48,15.01
42040,0.22,1.05,-0.08,-15.01,-3.17,15.81
42060,0.24,1.03,-0.09,-16.60,-0.61,18.01
42080,0.20,1.07,-0.09,-18.25,0.92,18.80
42100,0.21,1.07,-0.04,-18.62,-2.08,24.11
42120,0.23,1.05,-0.03,-18.92,-1.22,29.42
42140,0.22,1.08,-0.07,-19.10,-0.67,33.57
42160,0.28,0.99,-0.07,-22.09,-1.95,38.33
42180,0.28,1.00,-0.07,-25.76,-0.43,37.78
42200,0.27,1.04,0.00,-28.63,-3.72,43.58
42220,0.33,0.97,0.01,-30.21,-3.23,49.01
42240,0.34,0.94,0.02,-31.25,-1.04,47.49
42260,0.37,0.93,0.07,-27.59,-1.65,49.50
42280,0.43,0.85,0.08,-25.70,-1.65,48.58
42300,0.43,0.84,0.09,-21.48,-0.37,42.72
42320,0.46,0.84,0.13,-14.34,-3.42,37.90
42340,0.49,0.78,0.12,-9.34,-2.01,33.81
42360,0.50,0.77,0.12,-5.25,-2.20,26.86
42380,0.51,0.77,0.08,-1.65,-0.61,16.36
42400,0.53,0.77,0.06,0.12,-0.55,8.18
42420,0.52,0.79,0.07,2.87,0.49,1.10
42440,0.54,0.74,0.16,8.36,1.22,-11.54
42460,0.49,0.81,0.11,10.93,4.15,-21.48
42480,0.46,0.88,0.12,15.56,3.05,-26.37
42500,0.44,0.91,0.08,18.37,3.30,-29.11
42520,0.46,0.84,0.03,21.79,3.11,-30.76
42540,0.45,0.83,0.03,21.85,4.39,-35.52
42560,0.44,0.81,0.02,22.71,4.33,-41.08
42580,0.35,0.97,-0.01,20.02,2.32,-43.76
42600,0.32,1.06,0.00,19.65,0.67,-38.76
42620,0.38,0.95,0.01,21.67,-0.55,-33.45
42640,0.40,0.74,-0.01,23.56,6.77,-40.71
42660,0.40,0.70,0.03,22.40,7.14,-50.66
42680,0.21,1.05,-0.10,18.07,12.51,-59.20
42700,0.16,1.23,-0.03,17.15,4.82,-46.88
42720,0.28,1.01,-0.02,20.08,4.52,-38.64
42740,0.35,0.86,-0.08,21.36,12.82,-42.48
42760,0.17,1.12,-0.11,20.02,28.02,-58.29
42780,-0.17,1.38,-0.52,15.56,30.27,-48.77
42800,0.17,1.14,-0.19,8.61,1.65,-28.99
42820,0.19,1.03,-0.14,-2.56,4.52,-20.94
42840,0.15,1.02,-0.07,-6.23,5.37,-20.75
42860,0.11,1.03,-0.04,-2.50,13.43,-19.10
42880,0.09,1.04,-0.03,5.25,8.00,-10.86
42900,0.15,1.00,-0.10,5.55,4.58,-5.68
42920,0.16,0.99,-0.12,2.99,3.42,-3.91
42940,0.17,1.00,-0.11,0.55,3.23,-3.60
42960,0.17,1.00,-0.10,-0.43,3.42,-4.39
42980,0.12,1.02,-0.06,0.37,3.17,-4.27
43000,0.12,1.02,-0.07,1.77,-0.31,-0.31
43020,0.16,1.00,-0.11,2.81,-1.40,2.08
43040,0.17,0.99,-0.11,2.01,-1.16,1.77
43060,0.17,0.99,-0.12,0.73,-0.37,0.49
43080,0.17,0.99,-0.11,-1.22,0.67,-1.28
43100,0.17,1.00,-0.10,-1.59,1.28,-2.01
43120,0.17,0.99,-0.10,-1.22,2.14,-2.87
43140,0.15,1.00,-0.10,-0.98,2.08,-3.05
43160,0.15,1.00,-0.10,-0.49,1.65,-2.44
43180,0.15,1.00,-0.10,-0.55,1.10,-1.95
43200,0.16,1.00,-0.10,-0.79,1.22,-1.46
43220,0.16,1.00,-0.10,-0.61,1.53,-1.77
43240,0.15,1.00,-0.10,-0.37,1.59,-1.83
43260,0.15,1.00,-0.10,-0.49,1.46,-1.65
43280,0.15,1.00,-0.10,-0.73,1.34,-1.46
43300,0.15,1.00,-0.10,-0.61,1.28,-1.46
43320,0.15,1.00,-0.10,-0.37,1.16,-1.22
43340,0.15,1.00,-0.10,-0.79,0.85,-0.92
43360,0.15,1.00,-0.10,-0.67,1.22,-1.16
43380,0.15,1.00,-0.11,-0.43,1.16,-0.73
43400,0.15,1.00,-0.11,-0.85,0.85,-0.61
43420,0.15,1.00,-0.10,-1.04,0.73,-0.85
43440,0.15,1.00,-0.11,-1.04,0.92,-0.92
43460,0.15,1.00,-0.11,-0.92,0.85,-0.73
43480,0.15,1.00,-0.10,-1.10,0.73,-0.79
43500,0.15,1.00,-0.11,-0.79,0.92,-0.55
43520,0.15,1.00,-0.10,-0.67,1.10,-0.49
43540,0.15,1.00,-0.10,-0.31,0.98,-0.37
43560,0.15,1.00,-0.11,-0.43,0.61,0.18
43580,0.15,1.00,-0.11,-0.37,0.31,0.18
43600,0.15,1.00,-0.11,-0.55,0.49,0.18
43620,0.15,1.00,-0.11,-0.98,0.43,-0.06
43640,0.15,1.00,-0.10,-0.49,0.43,0.24
43660,0.15,1.00,-0.11,-0.55,0.24,0.79
43680,0.15,1.00,-0.11,-0.49,0.18,0.85
43700,0.16,1.00,-0.11,-0.98,0.06,0.73
43720,0.16,1.00,-0.11,-0.92,-0.12,0.79
43740,0.16,1.00,-0.11,-0.79,0.06,0.67
43760,0.16,1.00,-0.11,-0.92,0.55,0.49
43780,0.14,1.01,-0.10,-0.55,0.55,0.79
43800,0.16,1.00,-0.11,0.12,-0.18,1.83
43820,0.17,1.00,-0.11,-0.06,-0.31,1.77
43840,0.16,1.00,-0.11,-0.24,0.67,0.79
43860,0.16,1.00,-0.11,-0.24,1.10,0.49
43880,0.15,1.00,-0.10,0.00,1.22,0.79
43900,0.16,1.00,-0.11,0.00,0.67,1.46
43920,0.16,1.00,-0.11,-0.24,0.67,1.59
43940,0.15,1.00,-0.11,-0.92,0.92,1.40
43960,0.14,1.01,-0.10,-1.40,0.18,2.38
43980,0.15,1.01,-0.10,-1.40,-1.34,5.25
44000,0.16,1.00,-0.10,-1.83,-1.77,7.75
44020,0.16,1.00,-0.11,-2.50,-1.53,10.07
44040,0.17,1.01,-0.08,-3.11,-2.56,11.78
44060,0.13,1.06,-0.09,-3.78,-2.62,15.87
44080,0.17,1.08,-0.09,-3.23,-4.88,28.14
44100,0.19,1.05,-0.12,-2.81,-7.39,34.55
44120,0.19,1.08,-0.18,-0.98,-7.08,35.77
44140,0.22,1.14,-0.19,-4.03,-9.89,37.41
44160,0.26,1.10,-0.13,-8.73,-10.44,41.87
44180,0.23,1.12,-0.22,-10.19,-7.93,46.39
44200,0.23,1.15,-0.17,-15.56,-13.18,52.98
44220,0.25,1.11,-0.11,-21.30,-14.95,58.53
44240,0.30,0.99,-0.09,-23.68,-14.10,62.26
44260,0.33,0.92,-0.10,-30.15,-10.25,62.19
44280,0.36,0.86,-0.08,-39.73,-7.20,60.85
44300,0.41,0.83,-0.04,-41.44,-5.13,57.07
44320,0.42,0.82,-0.02,-42.97,-2.44,56.27
44340,0.47,0.82,0.04,-41.63,-5.92,54.20
44360,0.50,0.76,0.08,-39.12,-5.98,50.42
44380,0.52,0.77,0.12,-32.29,-5.31,42.30
44400,0.57,0.73,0.14,-21.61,-4.15,30.88
44420,0.58,0.71,0.14,-13.98,-3.97,22.09
44440,0.59,0.71,0.11,-8.36,-2.44,13.37
44460,0.61,0.68,0.11,-1.71,-0.55,0.43
44480,0.63,0.64,0.13,2.20,1.95,-11.72
44500,0.56,0.76,0.11,7.08,4.76,-24.35
44520,0.53,0.84,0.14,14.77,4.70,-34.12
44540,0.49,0.88,0.05,18.68,6.04,-38.45
44560,0.49,0.87,0.05,20.81,3.54,-39.73
44580,0.46,0.89,-0.03,18.07,5.37,-42.18
44600,0.48,0.82,-0.01,16.42,3.78,-45.04
44620,0.46,0.76,0.01,16.72,3.97,-50.48
44640,0.39,0.92,0.08,18.25,1.40,-55.18
44660,0.35,1.02,0.04,23.13,0.06,-48.03
44680,0.31,1.05,0.02,25.94,5.00,-43.15
44700,0.40,0.88,-0.03,26.06,5.98,-39.86
44720,0.40,0.70,-0.04,22.95,12.82,-50.05
44740,0.24,0.99,-0.12,17.64,15.75,-58.17
44760,0.24,1.09,-0.07,13.79,8.48,-52.92
44780,0.29,0.98,-0.03,15.99,8.12,-48.10
44800,0.38,0.91,-0.06,17.21,16.72,-52.25
44820,0.29,1.10,-0.17,13.37,32.29,-65.49
44840,0.01,1.25,-0.03,20.26,19.65,-50.35
44860,0.14,1.15,-0.09,18.55,2.99,-19.04
44880,0.21,0.99,-0.17,1.77,3.60,-7.57
44900,0.21,1.00,-0.09,-7.32,3.66,-10.68
44920,0.22,1.01,-0.02,-4.21,3.36,-11.72
44940,0.20,1.00,-0.07,1.77,6.53,-13.12
44960,0.18,0.99,-0.11,4.09,7.51,-15.50
44980,0.15,1.00,-0.12,2.08,6.96,-15.38
45000,0.13,1.01,-0.10,0.00,4.27,-13.43
45020,0.14,1.01,-0.09,-1.46,0.55,-8.91
45040,0.14,1.02,-0.07,0.37,0.61,-5.98
45060,0.14,1.01,-0.09,2.56,2.56,-3.05
45080,0.15,1.00,-0.10,3.91,1.95,-1.53
45100,0.15,1.00,-0.12,4.09,1.46,-0.55
45120,0.16,1.00,-0.12,2.56,1.46,-0.49
45140,0.16,0.99,-0.12,1.22,1.40,-0.24
45160,0.15,1.00,-0.12,-0.37,1.46,-0.85
45180,0.15,1.00,-0.11,-0.61,1.22,-1.16
45200,0.16,1.00,-0.11,-0.49,0.98,-1.04
45220,0.16,1.00,-0.12,-0.67,1.28,-1.34
45240,0.15,1.00,-0.12,-0.85,1.53,-1.46
45260,0.15,1.00,-0.11,-1.04,0.98,-1.16
45280,0.15,1.00,-0.11,-0.85,0.92,-1.04
45300,0.15,1.00,-0.12,-0.61,0.67,-0.92
45320,0.15,1.00,-0.12,-0.85,0.55,-0.98
45340,0.15,1.00,-0.12,-1.16,0.92,-1.04
45360,0.15,1.00,-0.11,-1.16,0.79,-1.22
45380,0.15,1.00,-0.11,-1.10,0.67,-1.16
45400,0.15,1.00,-0.11,-0.92,0.79,-0.98
45420,0.15,1.00,-0.11,-0.73,0.67,-0.67
45440,0.15,1.00,-0.12,-0.55,0.61,-0.67
45460,0.15,1.00,-0.12,-0.67,0.61,-0.67
45480,0.15,1.00,-0.12,-0.92,0.73,-0.79
45500,0.15,1.00,-0.12,-0.85,0.55,-0.67
45520,0.15,1.00,-0.11,-0.73,0.49,-0.67
45540,0.15,1.00,-0.11,-0.37,0.55,-0.37
45560,0.15,1.00,-0.11,-0.49,0.61,-0.24
45580,0.15,1.00,-0.12,-0.18,0.37,-0.12
45600,0.15,1.00,-0.12,-0.43,0.43,0.06
45620,0.15,1.00,-0.12,-0.37,0.55,0.00
45640,0.15,1.00,-0.12,-0.37,0.61,0.00
45660,0.15,1.00,-0.12,-0.43,0.67,0.06
45680,0.16,1.00,-0.12,-0.43,0.61,-0.06
45700,0.15,1.00,-0.12,-0.49,0.79,-0.12
45720,0.15,1.00,-0.12,-0.55,1.22,-0.18
45740,0.15,1.00,-0.12,-0.85,1.16,-0.24
45760,0.15,1.00,-0.12,-0.92,1.16,-0.37
45780,0.15,1.00,-0.12,-0.85,1.34,-0.18
45800,0.15,1.00,-0.12,-0.92,1.10,-0.06
45820,0.15,1.00,-0.12,-0.67,1.22,-0.31
45840,0.15,1.00,-0.12,-0.98,1.16,0.12
45860,0.15,1.00,-0.12,-0.61,1.10,0.43
45880,0.15,1.00,-0.12,-0.55,0.79,0.85
45900,0.16,1.00,-0.12,-0.73,0.31,1.28
45920,0.15,1.00,-0.12,-0.98,0.37,1.34
45940,0.14,1.00,-0.11,-1.34,0.18,1.89
45960,0.14,1.00,-0.11,-1.59,-0.79,3.05
45980,0.15,1.00,-0.11,-3.72,-2.44,7.32
46000,0.15,1.01,-0.11,-4.39,-2.50,8.85
46020,0.15,1.01,-0.10,-4.88,-3.42,11.29
46040,0.16,1.02,-0.09,-7.02,-5.55,17.33
46060,0.15,1.03,-0.09,-8.24,-6.23,21.48
46080,0.19,1.02,-0.11,-8.00,-8.12,26.37
46100,0.20,1.04,-0.14,-6.71,-7.63,28.93
46120,0.22,1.03,-0.19,-6.96,-8.24,28.99
46140,0.20,1.05,-0.18,-9.83,-9.40,28.38
46160,0.23,1.08,-0.22,-21.42,-7.63,30.82
46180,0.24,1.06,-0.17,-27.95,-7.87,32.84
46200,0.23,1.05,-0.13,-34.42,-8.06,35.64
46220,0.26,1.06,-0.08,-40.22,-6.96,38.94
46240,0.24,1.09,0.01,-41.26,-6.90,43.82
46260,0.21,1.16,0.01,-39.61,-3.48,52.31
46280,0.33,0.95,-0.00,-39.49,-0.92,63.05
46300,0.37,0.89,-0.06,-43.03,5.00,57.74
46320,0.40,0.86,-0.03,-43.76,2.32,57.86
46340,0.41,0.84,0.02,-42.79,0.61,56.82
46360,0.43,0.92,0.11,-38.94,-2.99,56.52
46380,0.50,0.82,0.14,-34.24,-7.02,56.09
46400,0.55,0.71,0.15,-29.30,-4.03,49.56
46420,0.58,0.67,0.20,-18.62,-2.26,31.13
46440,0.60,0.65,0.24,-9.40,-1.77,17.82
46460,0.60,0.68,0.32,1.04,-1.65,4.33
46480,0.56,0.74,0.21,14.10,3.78,-13.00
46500,0.55,0.76,0.09,19.10,5.98,-21.42
46520,0.54,0.79,0.03,21.97,6.10,-29.30
46540,0.50,0.79,0.10,23.50,4.15,-39.18
46560,0.45,0.91,0.11,26.67,4.39,-44.92
46580,0.42,0.95,0.10,32.59,1.83,-44.92
46600,0.43,0.86,-0.02,32.35,1.22,-42.66
46620,0.44,0.86,-0.05,26.92,2.62,-47.97
46640,0.39,0.82,0.00,24.60,4.39,-52.31
46660,0.32,1.00,0.02,25.82,5.92,-54.57
46680,0.24,1.19,0.01,29.11,-0.92,-42.54
46700,0.32,1.00,-0.00,34.67,-1.65,-28.81
46720,0.36,0.86,-0.03,32.41,4.03,-32.59
46740,0.36,0.77,-0.05,23.80,10.99,-40.65
46760,0.28,0.95,-0.16,16.85,15.32,-49.56
46780,0.22,1.08,-0.10,12.57,11.96,-48.95
46800,0.26,1.00,-0.10,12.21,8.97,-40.10
46820,0.34,0.94,-0.04,12.02,9.89,-42.18
46840,0.36,1.00,-0.07,12.94,24.60,-51.82
46860,-0.16,1.11,-0.47,25.51,46.63,-58.90
46880,-0.10,1.21,-0.05,37.78,19.53,-39.37
46900,0.09,1.07,-0.17,13.92,-2.75,-13.92
46920,0.16,1.02,-0.08,-5.25,-1.04,-3.72
46940,0.18,1.00,-0.09,-4.09,0.61,-2.93
46960,0.19,1.00,-0.11,-1.59,2.01,-3.72
46980,0.18,0.98,-0.14,0.98,4.27,-6.35
47000,0.17,0.99,-0.14,0.12,4.03,-7.51
47020,0.16,1.00,-0.12,-0.43,4.15,-7.93
47040,0.14,1.00,-0.11,0.06,3.11,-5.62
47060,0.14,1.01,-0.11,0.49,1.71,-3.11
47080,0.16,1.00,-0.12,1.10,1.10,-1.34
47100,0.16,1.00,-0.12,1.40,1.16,-0.73
47120,0.16,1.00,-0.12,1.71,0.61,-0.43
47140,0.16,0.99,-0.13,1.59,0.12,0.18
47160,0.16,0.99,-0.13,0.85,-0.06,0.43
47180,0.16,0.99,-0.13,-0.98,0.24,-0.12
47200,0.16,0.99,-0.13,-1.40,0.61,-0.67
47220,0.16,1.00,-0.12,-1.16,0.92,-0.73
47240,0.16,1.00,-0.13,-0.73,0.43,-0.49
47260,0.15,1.00,-0.12,-0.67,0.18,-0.24
47280,0.16,1.00,-0.12,-0.61,-0.37,0.43
47300,0.17,0.99,-0.14,-0.79,-0.55,0.79
47320,0.16,1.00,-0.13,-1.16,-0.18,0.67
47340,0.16,1.00,-0.12,-0.79,-0.31,0.31
47360,0.15,1.00,-0.12,-0.18,-0.24,0.79
47380,0.17,1.00,-0.13,0.06,-0.79,1.71
47400,0.16,1.00,-0.13,0.24,-0.55,1.83
47420,0.17,1.00,-0.13,0.06,-0.55,1.77
47440,0.17,1.00,-0.13,-0.31,-0.43,1.40
47460,0.17,0.99,-0.13,-0.49,0.06,1.16
47480,0.17,1.00,-0.13,-0.85,0.06,0.79
47500,0.17,1.00,-0.13,-0.49,-0.06,1.10
47520,0.17,0.99,-0.13,-0.67,-0.37,1.40
47540,0.17,0.99,-0.13,-0.92,0.12,0.92
47560,0.17,0.99,-0.13,-1.16,0.31,0.55
47580,0.17,1.00,-0.13,-1.28,0.18,0.61
47600,0.17,1.00,-0.13,-1.28,0.00,1.22
47620,0.18,1.00,-0.13,-1.34,-0.24,1.59
47640,0.18,0.99,-0.13,-1.28,0.12,1.34
47660,0.18,0.99,-0.13,-0.85,0.18,1.10
47680,0.18,0.99,-0.13,-1.16,0.49,0.55
47700,0.18,0.99,-0.13,-1.40,0.18,0.49
47720,0.18,0.99,-0.13,-1.65,0.31,0.49
47740,0.18,0.99,-0.13,-1.77,0.43,-0.31
47760,0.18,0.99,-0.13,-2.01,0.79,-0.85
47780,0.18,1.00,-0.13,-1.77,1.28,-1.10
47800,0.17,1.00,-0.13,-1.59,0.92,-0.73
47820,0.18,0.99,-0.13,-1.59,0.85,-0.55
47840,0.18,1.00,-0.13,-1.40,0.73,-0.67
47860,0.17,1.00,-0.09,-1.40,0.92,-0.49
47880,0.17,1.00,-0.12,-1.04,0.49,0.06
47900,0.17,1.00,-0.13,-1.34,0.24,1.04
47920,0.17,1.00,-0.13,-1.65,-0.12,1.83
47940,0.18,0.99,-0.13,-1.77,-0.31,2.01
47960,0.18,0.99,-0.13,-1.89,-0.06,2.14
47980,0.18,1.00,-0.13,-1.89,0.12,1.71
48000,0.18,1.00,-0.12,-1.40,0.12,1.95
48020,0.18,1.00,-0.12,-1.40,-0.18,2.38
48040,0.18,1.00,-0.12,-1.46,-0.85,2.99
48060,0.19,1.00,-0.12,-2.14,-1.16,3.97
48080,0.18,1.00,-0.12,-2.26,-0.92,4.70
48100,0.19,1.00,-0.12,-2.38,-1.53,5.80
48120,0.19,1.00,-0.12,-1.65,-1.28,6.53
48140,0.19,1.00,-0.12,-1.46,-1.65,7.51
48160,0.20,1.00,-0.13,-1.53,-2.01,8.79
48180,0.20,1.00,-0.14,-2.75,-2.08,9.28
48200,0.20,1.01,-0.12,-3.42,-2.56,10.01
48220,0.21,1.00,-0.14,-4.21,-2.75,10.99
48240,0.22,0.99,-0.14,-5.74,-3.17,10.56
48260,0.22,1.02,-0.13,-6.16,-3.17,10.50
48280,0.22,1.03,-0.11,-5.49,-3.23,12.21
48300,0.20,1.10,-0.11,-2.99,-4.27,19.23
48320,0.24,1.06,-0.13,-1.89,-4.88,26.06
48340,0.25,1.02,-0.15,-3.54,-5.19,28.50
48360,0.25,1.04,-0.18,-7.57,-6.90,30.09
48380,0.27,1.01,-0.15,-13.43,-8.73,32.35
48400,0.27,1.02,-0.12,-16.42,-9.22,34.00
48420,0.31,0.97,-0.09,-17.46,-10.13,35.34
48440,0.34,0.91,-0.07,-18.74,-9.03,34.97
48460,0.34,0.93,-0.05,-18.55,-7.14,33.08
48480,0.36,0.91,-0.04,-17.88,-7.02,31.68
48500,0.39,0.88,-0.04,-17.27,-5.19,28.44
48520,0.40,0.88,-0.04,-17.03,-3.48,25.82
48540,0.40,0.89,-0.02,-16.54,-2.44,22.77
48560,0.40,0.94,0.01,-14.53,-1.83,19.90
48580,0.41,0.93,0.01,-12.63,-2.99,19.41
48600,0.41,0.93,-0.01,-10.86,-1.53,19.10
48620,0.42,0.94,-0.02,-10.74,-1.04,18.62
48640,0.42,0.94,-0.03,-11.60,-0.37,18.68
48660,0.44,0.91,-0.03,-12.63,-2.08,19.84
48680,0.45,0.90,-0.02,-15.08,-1.34,18.80
48700,0.45,0.90,0.00,-15.56,-1.22,17.58
48720,0.46,0.89,0.03,-14.77,-2.08,17.09
48740,0.48,0.86,0.04,-13.00,-1.77,14.65
48760,0.50,0.84,0.04,-11.84,-0.49,11.11
48780,0.50,0.86,0.03,-9.89,0.12,7.87
48800,0.50,0.86,0.05,-8.18,0.12,3.54
48820,0.52,0.81,0.06,-5.19,-0.18,0.55
48840,0.52,0.81,0.10,-3.23,0.61,-4.76
48860,0.50,0.84,0.08,-0.12,2.62,-10.50
48880,0.49,0.86,0.09,5.19,3.85,-15.81
48900,0.49,0.85,0.07,9.16,4.46,-19.96
48920,0.48,0.83,0.02,12.76,4.94,-24.23
48940,0.45,0.90,0.02,13.85,4.27,-29.91
48960,0.42,0.96,-0.00,14.89,4.64,-30.70
48980,0.42,0.93,0.02,16.85,3.05,-29.72
49000,0.40,0.93,-0.00,19.90,3.85,-29.36
49020,0.37,0.97,-0.03,20.32,5.37,-27.77
49040,0.38,0.97,-0.06,18.55,4.94,-25.76
49060,0.38,0.97,-0.06,14.77,5.31,-23.19
49080,0.38,0.94,-0.07,13.31,5.80,-22.77
49100,0.36,0.94,-0.03,12.76,4.88,-23.50
49120,0.33,0.98,-0.08,13.18,3.78,-20.94
49140,0.35,0.96,-0.09,11.41,3.23,-18.62
49160,0.35,0.95,-0.11,8.79,4.52,-19.53
49180,0.37,0.89,-0.09,6.59,6.16,-23.99
49200,0.28,0.99,-0.02,6.84,6.35,-27.71
49220,0.27,1.06,-0.04,9.03,3.30,-23.93
49240,0.30,1.01,-0.10,9.64,4.15,-17.52
49260,0.32,0.94,-0.13,7.75,6.16,-18.37
49280,0.34,0.88,-0.14,5.55,8.24,-21.91
49300,0.33,0.86,-0.05,3.42,8.85,-29.66
49320,0.16,1.21,-0.01,10.07,6.59,-24.78
49340,0.24,1.07,-0.13,14.53,6.35,-11.11
49360,0.28,0.98,-0.19,13.00,7.08,-8.36
49380,0.29,0.93,-0.21,7.14,8.48,-12.39
49400,0.28,0.93,-0.15,1.34,8.36,-16.78
49420,0.29,0.91,-0.08,-1.59,10.50,-22.58
49440,0.14,1.13,-0.14,2.69,10.86,-19.65
49460,0.23,0.98,-0.17,3.05,4.64,-10.62
49480,0.26,0.93,-0.21,-1.16,4.88,-12.27
49500,0.25,0.98,-0.16,-9.77,5.62,-18.25
49520,0.21,1.01,-0.10,-9.40,7.26,-20.69
49540,0.22,1.00,-0.13,-5.00,10.74,-22.16
49560,0.15,1.04,-0.08,1.65,12.33,-23.19
49580,0.14,1.03,-0.10,3.78,6.71,-14.83
49600,0.18,1.00,-0.13,1.65,4.64,-9.64
49620,0.18,0.99,-0.13,-0.61,4.27,-8.42
49640,0.16,1.01,-0.12,-1.22,3.72,-7.69
49660,0.16,1.00,-0.11,-0.61,2.87,-6.29
49680,0.16,1.00,-0.12,-0.55,2.50,-5.43
49700,0.16,1.00,-0.12,-0.24,2.14,-4.15
49720,0.16,0.99,-0.14,-0.73,1.46,-3.11
49740,0.16,0.99,-0.14,-1.95,0.92,-3.17
49760,0.16,1.00,-0.13,-2.75,0.43,-3.78
49780,0.16,1.00,-0.12,-2.32,0.37,-3.91
49800,0.16,1.00,-0.12,-2.20,0.18,-3.78
49820,0.16,1.00,-0.12,-2.26,0.31,-3.48
49840,0.15,1.00,-0.12,-2.01,0.67,-2.56
49860,0.16,1.00,-0.12,-1.77,0.61,-1.71
49880,0.16,1.00,-0.12,-1.22,0.24,-1.28
49900,0.16,1.00,-0.12,-0.92,0.06,-0.85
49920,0.16,1.00,-0.13,-0.79,0.12,-0.85
49940,0.16,1.00,-0.13,-1.16,0.43,-0.79
49960,0.16,1.00,-0.13,-1.40,0.49,-0.73
49980,0.16,1.00,-0.12,-1.34,0.49,-0.67
50000,0.16,1.00,-0.12,-1.40,0.67,-0.85
50020,0.16,1.00,-0.12,-1.22,0.92,-0.67
50040,0.15,1.00,-0.12,-1.10,0.67,-0.85
50060,0.16,1.00,-0.12,-1.28,0.37,-0.37
50080,0.16,1.00,-0.13,-1.28,0.12,-0.49
50100,0.16,1.00,-0.12,-1.28,0.43,-0.55
50120,0.16,1.00,-0.12,-1.34,0.55,-0.43
50140,0.16,1.00,-0.12,-1.40,0.61,-0.55
50160,0.16,1.00,-0.12,-1.34,0.73,-0.55
50180,0.15,1.00,-0.12,-1.22,0.79,-0.49
50200,0.16,1.00,-0.12,-1.22,0.55,-0.37
50220,0.16,1.00,-0.12,-1.22,0.49,-0.31
50240,0.15,1.00,-0.12,-1.10,0.61,-0.31
50260,0.16,1.00,-0.12,-0.98,0.73,-0.12
50280,0.16,1.00,-0.12,-0.98,0.43,-0.12
50300,0.16,1.00,-0.13,-1.04,0.61,-0.06
50320,0.16,1.00,-0.12,-0.73,0.55,-0.18
50340,0.16,1.00,-0.12,-0.92,0.55,-0.06
50360,0.16,1.00,-0.12,-0.73,0.43,0.24
50380,0.15,1.00,-0.12,-0.12,-0.12,1.16
50400,0.16,1.00,-0.13,-0.24,-0.55,1.71
50420,0.16,1.00,-0.13,-0.67,-0.49,1.53
50440,0.17,0.99,-0.13,-0.73,-0.18,1.40
50460,0.16,1.00,-0.13,-1.22,0.12,1.04
50480,0.16,1.00,-0.12,-1.34,0.12,1.22
50500,0.15,1.00,-0.12,-1.28,-0.12,2.20
50520,0.17,0.99,-0.13,-1.65,-1.28,2.75
50540,0.17,1.00,-0.12,-2.38,-0.85,2.38
50560,0.16,1.00,-0.12,-2.26,-0.55,2.44
50580,0.16,1.01,-0.11,-2.69,-1.10,3.36
50600,0.17,1.00,-0.12,-3.05,-1.89,5.43
50620,0.17,1.00,-0.11,-4.03,-2.08,6.35
50640,0.16,1.01,-0.11,-5.25,-3.66,9.52
50660,0.19,1.00,-0.12,-5.98,-4.33,11.90
50680,0.18,1.00,-0.11,-6.04,-3.54,11.78
50700,0.17,1.03,-0.10,-4.46,-3.97,14.77
50720,0.18,1.03,-0.13,-3.72,-5.43,18.86
50740,0.22,1.00,-0.15,-3.05,-6.41,20.39
50760,0.22,0.99,-0.15,-3.85,-6.41,17.76
50780,0.23,1.02,-0.11,-4.70,-7.32,17.21
50800,0.24,1.02,-0.11,-4.46,-6.47,18.19
50820,0.26,1.01,-0.11,-4.82,-4.58,20.26
50840,0.25,1.02,-0.14,-6.84,-2.99,21.24
50860,0.25,1.01,-0.13,-9.58,-3.54,22.58
50880,0.27,1.00,-0.13,-12.63,-4.03,23.68
50900,0.28,0.99,-0.12,-17.21,-4.03,23.62
50920,0.29,0.99,-0.09,-19.04,-4.94,24.17
50940,0.28,1.02,-0.06,-19.65,-4.33,24.72
50960,0.31,0.99,-0.04,-19.23,-4.21,26.73
50980,0.30,1.00,-0.05,-17.94,-2.56,27.40
51000,0.33,0.98,-0.05,-17.64,-3.54,30.21
51020,0.32,1.00,-0.02,-15.50,-0.85,30.88
51040,0.37,0.94,-0.02,-15.50,-1.04,33.75
51060,0.37,0.94,-0.03,-16.60,-0.49,32.90
51080,0.39,0.93,-0.03,-18.92,-1.34,32.17
51100,0.40,0.91,-0.01,-19.23,-1.95,31.92
51120,0.41,0.93,0.01,-18.98,-1.83,31.74
51140,0.43,0.91,0.03,-17.52,-3.66,31.80
51160,0.45,0.88,0.04,-15.99,-3.54,30.27
51180,0.47,0.86,0.05,-13.49,-3.66,27.77
51200,0.48,0.85,0.05,-9.95,-3.17,22.58
51220,0.49,0.83,0.04,-7.87,-2.93,19.23
51240,0.50,0.84,0.04,-6.77,-2.50,15.26
51260,0.50,0.84,0.04,-6.16,-1.77,10.07
51280,0.53,0.80,0.04,-5.68,-1.34,5.43
51300,0.54,0.77,0.06,-4.88,-0.85,0.31
51320,0.55,0.73,0.10,-3.05,0.31,-12.76
51340,0.51,0.80,0.11,1.71,2.81,-21.00
51360,0.48,0.89,0.10,5.92,3.66,-26.61
51380,0.47,0.90,0.09,10.31,2.56,-28.56
51400,0.46,0.88,0.02,12.70,4.21,-30.03
51420,0.47,0.79,0.01,12.76,4.88,-33.39
51440,0.46,0.78,-0.02,11.66,5.37,-40.28
51460,0.38,0.97,-0.05,7.87,0.49,-45.17
51480,0.34,1.05,-0.01,5.00,-0.55,-41.87
51500,0.36,1.02,0.02,5.74,-0.98,-37.60
51520,0.36,0.94,0.10,8.30,1.95,-35.71
51540,0.33,0.96,0.07,12.33,7.08,-36.44
51560,0.34,0.91,0.03,15.87,8.24,-35.77
51580,0.31,0.93,-0.08,15.26,11.17,-38.57
51600,0.31,0.96,-0.08,13.73,8.85,-39.37
51620,0.30,0.93,-0.05,12.02,8.30,-41.20
51640,0.22,1.05,-0.01,12.82,7.14,-40.71
51660,0.21,1.11,0.00,16.78,5.49,-31.74
51680,0.26,1.01,-0.06,22.34,10.13,-26.49
51700,0.35,0.95,-0.13,20.51,21.24,-32.35
51720,0.14,1.11,-0.14,18.01,28.50,-38.15
51740,-0.01,1.20,-0.23,20.20,26.67,-26.31
51760,0.19,1.02,-0.20,18.43,4.88,-12.57
51780,0.20,1.02,-0.12,8.54,5.00,-12.21
51800,0.21,1.00,-0.11,5.37,6.53,-12.33
51820,0.20,1.00,-0.09,5.25,8.24,-14.04
51840,0.16,1.01,-0.12,6.59,8.61,-14.47
51860,0.15,1.00,-0.14,5.31,5.37,-12.21
51880,0.16,1.00,-0.13,1.71,3.17,-10.19
51900,0.16,1.00,-0.11,-0.55,1.04,-8.18
51920,0.16,1.00,-0.11,-0.31,0.67,-6.84
51940,0.16,1.00,-0.12,-0.12,0.55,-6.04
51960,0.16,1.00,-0.12,0.61,1.40,-4.88
51980,0.16,1.00,-0.12,0.31,1.16,-4.09
52000,0.16,1.00,-0.13,-0.49,1.04,-3.60
52020,0.16,1.00,-0.13,-0.98,0.61,-2.87
52040,0.16,1.00,-0.12,-1.53,0.79,-2.56
52060,0.16,1.00,-0.12,-1.34,0.79,-2.32
52080,0.16,1.00,-0.12,0.67,0.55,-1.28
52100,0.16,1.00,-0.12,0.92,0.73,-0.98
52120,0.16,1.00,-0.13,1.10,0.55,-0.67
52140,0.16,1.00,-0.13,0.67,0.49,-0.49
52160,0.16,1.00,-0.13,-0.61,0.49,-0.92
52180,0.16,1.00,-0.13,-1.16,0.55,-0.85
52200,0.16,1.00,-0.13,-1.59,0.55,-0.98
52220,0.16,1.00,-0.13,-1.89,0.43,-0.92
52240,0.16,1.00,-0.13,-1.34,0.43,-0.92
52260,0.16,1.00,-0.13,-1.46,0.31,-0.98
52280,0.16,1.00,-0.13,-1.28,0.55,-0.79
52300,0.16,1.00,-0.13,-1.65,0.61,-0.98
52320,0.16,1.00,-0.12,-1.46,0.61,-0.73
52340,0.16,1.00,-0.12,-1.40,0.49,-0.61
52360,0.16,1.00,-0.13,-0.98,0.43,-0.61
52380,0.16,1.00,-0.12,-0.67,0.55,-0.67
52400,0.16,1.00,-0.12,-0.43,0.55,-0.55
52420,0.16,1.00,-0.13,-0.24,0.49,-0.49
52440,0.16,1.00,-0.13,0.06,0.55,-0.43
52460,0.16,1.00,-0.13,1.04,0.55,-0.06
52480,0.16,1.00,-0.13,1.16,0.37,0.00
52500,0.16,1.00,-0.13,0.98,0.37,-0.18
52520,0.16,1.00,-0.13,1.04,0.49,-0.31
52540,0.16,1.00,-0.13,0.61,0.31,-0.31
52560,0.16,1.00,-0.13,0.61,0.24,-0.24
52580,0.16,1.00,-0.13,0.49,0.49,-0.49
52600,0.16,1.00,-0.14,-0.18,0.43,-0.49
52620,0.16,1.00,-0.13,-0.55,0.61,-0.49
52640,0.16,1.00,-0.13,-0.67,0.67,-0.61
52660,0.16,1.00,-0.13,-0.67,0.43,-0.55
52680,0.16,1.00,-0.13,-0.43,0.49,-0.61
52700,0.16,1.00,-0.14,-0.55,0.55,-0.31
52720,0.16,1.00,-0.13,-0.67,0.55,-0.43
52740,0.16,1.00,-0.13,-0.67,0.61,-0.37
52760,0.16,1.00,-0.13,-0.67,0.55,-0.24
52780,0.16,1.00,-0.14,-0.24,0.61,-0.24
52800,0.16,1.00,-0.13,-0.49,0.73,-0.18
52820,0.16,1.00,-0.14,-0.31,0.73,-0.31
52840,0.16,1.00,-0.14,-0.43,0.67,-0.37
52860,0.16,1.00,-0.13,-0.31,0.73,-0.31
52880,0.16,1.00,-0.14,-0.12,0.79,-0.31
52900,0.16,1.00,-0.14,-0.37,0.85,-0.24
52920,0.16,0.99,-0.14,-0.49,0.92,-0.24
52940,0.16,1.00,-0.14,-0.31,0.85,-0.06
52960,0.16,1.00,-0.14,-0.37,1.10,0.12
52980,0.16,1.00,-0.14,-0.79,1.04,0.06
53000,0.16,1.00,-0.13,-0.98,0.92,0.18
53020,0.16,0.99,-0.14,-1.34,0.92,0.43
53040,0.16,0.99,-0.14,-1.71,1.22,0.12
53060,0.16,1.00,-0.14,-1.71,1.16,0.12
53080,0.16,1.00,-0.14,-1.83,0.98,-0.24
53100,0.16,1.00,-0.14,-1.95,0.92,0.00
53120,0.16,1.00,-0.14,-2.44,0.67,-0.31
53140,0.16,1.00,-0.13,-2.93,0.43,0.06
53160,0.15,1.00,-0.12,-3.54,0.12,0.49
53180,0.17,0.99,-0.14,-3.42,-0.85,1.65
53200,0.17,1.00,-0.13,-4.21,-1.34,1.59
53220,0.16,1.00,-0.12,-3.23,-0.98,1.46
53240,0.16,1.00,-0.13,-3.05,-1.10,2.01
53260,0.15,1.00,-0.12,-3.17,-1.22,2.32
53280,0.15,1.01,-0.13,-3.30,-3.17,5.13
53300,0.16,1.00,-0.14,-4.70,-4.70,6.84
53320,0.16,1.01,-0.11,-7.51,-6.10,8.79
53340,0.16,1.01,-0.11,-10.86,-7.32,13.12
53360,0.18,1.02,-0.11,-10.74,-6.47,14.10
53380,0.19,1.01,-0.11,-8.42,-6.04,15.08
53400,0.20,1.01,-0.13,-8.12,-3.66,15.56
53420,0.20,1.04,-0.14,-7.45,-4.70,16.66
53440,0.20,1.03,-0.13,-7.02,-6.35,18.55
53460,0.20,1.06,-0.12,-6.47,-6.84,19.96
53480,0.25,1.03,-0.09,-6.23,-7.69,25.15
53500,0.24,1.04,-0.16,-7.75,-4.82,26.79
53520,0.24,1.03,-0.13,-10.62,-5.86,28.14
53540,0.23,1.10,-0.12,-15.44,-6.29,31.07
53560,0.25,1.08,-0.06,-16.97,-9.09,36.56
53580,0.27,1.04,-0.09,-16.54,-8.36,41.26
53600,0.32,0.97,-0.09,-18.98,-6.96,43.15
53620,0.33,0.94,-0.07,-21.18,-6.41,42.79
53640,0.35,0.92,-0.06,-23.38,-5.98,42.85
53660,0.36,0.96,-0.01,-24.84,-6.23,42.54
53680,0.38,0.94,-0.02,-24.60,-5.43,43.88
53700,0.42,0.87,-0.01,-25.09,-5.07,43.15
53720,0.42,0.89,-0.01,-25.09,-2.26,39.25
53740,0.44,0.87,0.04,-23.93,-3.60,37.96
53760,0.46,0.87,0.06,-21.85,-3.72,36.87
53780,0.47,0.87,0.08,-16.48,-4.21,33.26
53800,0.50,0.84,0.08,-13.06,-3.17,29.85
53820,0.52,0.81,0.08,-9.22,-3.11,26.18
53840,0.53,0.79,0.06,-6.71,-2.20,18.74
53860,0.54,0.80,0.07,-3.72,-1.65,13.24
53880,0.54,0.81,0.07,-2.50,-0.55,8.73
53900,0.55,0.80,0.07,-1.46,0.06,3.60
53920,0.54,0.80,0.07,1.40,1.59,-2.81
53940,0.54,0.80,0.05,2.93,2.38,-7.69
53960,0.53,0.82,0.05,4.21,2.75,-12.15
53980,0.50,0.90,0.04,4.64,3.05,-15.44
54000,0.49,0.92,0.04,4.46,2.93,-15.93
54020,0.50,0.88,0.04,4.94,2.93,-15.81
54040,0.50,0.83,0.05,5.55,3.42,-18.74
54060,0.51,0.80,0.03,6.10,4.46,-23.13
54080,0.50,0.80,0.03,6.84,4.52,-29.05
54100,0.43,0.96,0.07,12.51,1.77,-32.59
54120,0.43,0.95,0.03,14.65,1.77,-30.52
54140,0.46,0.85,0.00,15.14,1.28,-30.52
54160,0.47,0.80,-0.05,12.27,5.31,-38.09
54180,0.43,0.89,-0.03,10.68,4.94,-42.85
54200,0.31,1.07,0.03,12.51,2.99,-43.82
54220,0.34,1.03,0.03,16.42,1.46,-34.30
54240,0.38,0.91,-0.02,19.41,0.67,-31.43
54260,0.38,0.83,-0.10,15.14,6.90,-34.48
54280,0.33,0.92,-0.08,8.79,6.71,-39.73
54300,0.22,1.21,-0.01,7.45,4.15,-35.71
54320,0.29,1.06,0.02,12.33,3.23,-24.41
54340,0.31,0.95,-0.07,15.14,8.61,-21.97
54360,0.30,0.93,-0.09,13.98,10.74,-26.86
54380,0.26,0.99,-0.10,12.27,8.67,-28.38
54400,0.26,1.03,-0.08,10.68,7.20,-26.61
54420,0.29,0.99,-0.11,10.68,10.62,-24.96
54440,0.31,0.89,-0.15,9.70,17.21,-28.93
54460,0.24,1.01,-0.16,7.08,24.90,-36.93
54480,0.08,1.19,-0.10,9.52,13.49,-27.59
54500,0.19,1.08,-0.10,13.12,6.77,-14.28
54520,0.21,1.01,-0.13,8.36,8.67,-10.56
54540,0.22,0.99,-0.13,5.37,10.31,-11.41
54560,0.21,0.99,-0.12,4.58,10.50,-13.85
54580,0.18,1.02,-0.10,4.03,10.01,-14.83
54600,0.15,1.01,-0.13,2.87,6.04,-11.78
54620,0.17,1.00,-0.12,2.26,3.48,-9.58
54640,0.17,1.00,-0.13,1.04,2.75,-8.00
54660,0.17,1.00,-0.13,-0.37,1.95,-7.39
54680,0.16,1.00,-0.12,-1.22,0.98,-6.77
54700,0.16,1.00,-0.12,-1.71,0.79,-5.68
54720,0.16,1.00,-0.12,-2.01,0.12,-4.64
54740,0.17,1.00,-0.12,-0.92,-0.06,-3.85
54760,0.17,1.00,-0.13,-0.24,0.12,-3.48
54780,0.16,1.00,-0.13,-0.49,0.43,-3.17
54800,0.16,1.00,-0.12,-1.59,0.61,-2.44
54820,0.17,1.00,-0.12,-0.92,0.73,-1.71
54840,0.16,1.00,-0.13,-0.67,0.37,-1.59
54860,0.16,1.00,-0.13,-0.85,0.37,-1.46
54880,0.16,1.00,-0.12,-1.34,0.67,-1.22
54900,0.16,1.00,-0.13,-1.59,0.49,-0.92
54920,0.17,1.00,-0.12,-1.46,0.61,-0.73
54940,0.17,1.00,-0.13,-0.92,0.67,-0.92
54960,0.16,1.00,-0.13,-0.55,0.55,-0.98
54980,0.16,1.00,-0.13,-1.04,0.49,-0.73
55000,0.16,1.00,-0.13,-1.34,0.85,-0.92
55020,0.16,1.00,-0.13,-1.46,0.79,-0.67
55040,0.16,1.00,-0.12,-1.10,0.98,-0.55
55060,0.16,1.00,-0.13,-0.61,0.79,-0.55
55080,0.16,1.00,-0.13,-0.37,0.73,-0.55
55100,0.16,1.00,-0.12,-0.61,0.79,-0.37
55120,0.16,1.00,-0.13,-0.73,0.85,-0.18
55140,0.16,0.99,-0.13,-1.28,0.92,-0.06
55160,0.16,0.99,-0.13,-2.08,1.40,-0.06
55180,0.16,1.00,-0.13,-2.32,1.10,-0.67
55200,0.16,1.00,-0.12,-2.01,1.16,-0.98
55220,0.17,1.00,-0.13,-1.46,0.79,-0.98
55240,0.16,1.00,-0.12,-1.89,0.79,-1.34
55260,0.16,1.00,-0.13,-2.14,0.61,-1.22
55280,0.16,1.00,-0.13,-2.56,0.55,-1.46
55300,0.16,1.00,-0.12,-2.56,0.00,-1.77
55320,0.16,1.00,-0.12,0.12,-0.24,-0.98
55340,0.16,1.00,-0.12,1.40,0.37,-0.06
55360,0.17,1.00,-0.13,1.04,0.55,0.00
55380,0.16,1.00,-0.13,0.49,0.73,-0.18
55400,0.16,1.00,-0.13,-0.24,0.98,-0.12
55420,0.16,1.00,-0.12,-0.55,0.79,-0.06
55440,0.16,1.00,-0.12,-1.10,0.67,0.06
55460,0.16,0.99,-0.13,-1.65,0.31,0.43
55480,0.16,1.00,-0.13,-2.32,-0.06,0.55
55500,0.17,1.00,-0.13,-3.23,-0.43,0.43
55520,0.17,1.01,-0.11,-2.69,-0.31,0.24
55540,0.17,0.99,-0.13,0.79,0.31,0.67
55560,0.17,0.99,-0.13,-0.12,0.98,0.24
55580,0.16,1.00,-0.12,-0.73,1.04,0.12
55600,0.17,1.00,-0.11,0.18,1.10,0.31
55620,0.17,1.00,-0.13,2.75,1.28,1.04
55640,0.17,1.00,-0.13,2.08,1.46,0.67
55660,0.17,1.00,-0.13,2.20,1.71,0.49
55680,0.17,1.00,-0.13,3.30,2.38,1.04
55700,0.17,0.99,-0.14,2.62,2.93,0.73
55720,0.15,1.00,-0.13,1.65,2.38,0.98
55740,0.13,1.01,-0.12,0.12,-0.06,3.66
55760,0.16,1.00,-0.14,-2.75,-2.32,8.00
55780,0.18,0.99,-0.15,-6.23,-3.42,9.34
55800,0.15,1.04,-0.12,-11.78,-5.86,10.56
55820,0.19,1.01,-0.11,-15.63,-9.16,15.93
55840,0.17,1.04,-0.12,-15.08,-7.51,17.03
55860,0.18,1.05,-0.11,-12.76,-10.44,21.79
55880,0.14,1.13,-0.16,-11.66,-13.55,27.83
55900,0.17,1.20,-0.14,-7.69,-16.48,34.42
55920,0.21,1.16,-0.21,-6.65,-0.06,46.88
55940,0.22,1.10,-0.24,-17.76,-9.95,50.05
55960,0.22,1.10,-0.21,-26.79,-11.84,53.22
55980,0.22,1.10,-0.13,-34.00,-13.49,56.64
56000,0.28,1.04,-0.07,-39.79,-13.24,66.16
56020,0.28,0.98,-0.03,-42.79,-10.01,70.43
56040,0.36,0.95,-0.03,-43.70,-8.54,74.83
56060,0.40,0.89,0.04,-42.97,-8.06,75.32
56080,0.40,0.86,0.05,-41.44,-6.77,76.35
56100,0.51,0.79,0.10,-39.25,-13.00,73.36
56120,0.56,0.69,0.08,-32.78,-9.58,63.23
56140,0.60,0.62,0.12,-26.67,-10.44,52.25
56160,0.63,0.61,0.14,-18.62,-8.00,38.51
56180,0.70,0.44,0.22,-3.97,-7.75,17.33
56200,0.73,0.33,0.27,3.66,-0.79,-2.38
56220,0.69,0.43,0.23,13.67,9.09,-26.43
56240,0.67,0.44,0.14,31.86,12.21,-59.94
56260,0.52,0.75,-0.01,36.62,14.71,-76.90
56280,0.46,0.82,0.00,40.28,9.77,-84.11
56300,0.41,0.94,0.03,43.82,8.18,-85.88
56320,0.29,1.02,-0.02,41.44,6.29,-82.28
56340,0.32,1.06,-0.05,37.54,6.04,-78.49
56360,0.24,1.19,-0.07,31.43,12.39,-66.35
56380,0.32,0.93,0.03,34.79,17.27,-59.08
56400,0.24,0.77,0.01,36.44,27.77,-63.78
56420,0.20,1.01,-0.05,35.71,27.40,-64.70
56440,0.17,1.28,-0.52,27.10,38.45,-55.48
56460,0.05,1.20,-0.41,11.72,31.43,-44.31
56480,0.13,1.21,-0.09,-0.31,8.00,-24.60
56500,0.24,1.01,-0.07,-4.88,9.52,-12.21
56520,0.16,1.05,-0.06,-1.65,9.58,-13.06
56540,0.17,1.03,-0.09,1.46,5.19,-7.45
56560,0.23,0.96,-0.16,2.01,2.44,-4.58
56580,0.22,0.95,-0.17,-1.10,2.56,-7.39
56600,0.21,0.98,-0.14,-4.33,2.38,-9.77
56620,0.20,1.00,-0.11,-5.19,3.91,-11.78
56640,0.18,1.01,-0.09,-3.48,3.97,-10.93
56660,0.17,1.02,-0.08,-0.73,3.05,-8.48
56680,0.18,1.01,-0.10,2.01,1.22,-4.09
56700,0.19,1.00,-0.12,1.71,0.85,-2.81
56720,0.19,0.99,-0.13,1.04,1.10,-2.62
56740,0.19,0.99,-0.12,0.24,1.40,-2.93
56760,0.18,1.00,-0.11,-0.06,0.24,-1.65
56780,0.19,0.99,-0.12,-0.31,0.37,-0.98
56800,0.19,1.00,-0.12,-0.61,-0.12,-0.92
56820,0.19,1.00,-0.12,-1.16,0.24,-0.85
56840,0.19,1.00,-0.12,-1.16,0.85,-0.79
56860,0.18,1.00,-0.12,-1.10,0.37,-0.55
56880,0.19,0.99,-0.12,-0.92,0.00,0.12
56900,0.19,0.99,-0.12,-0.79,0.00,0.00
56920,0.19,0.99,-0.12,-0.73,0.12,-0.31
56940,0.19,0.99,-0.13,-0.98,0.61,-0.49
56960,0.19,0.99,-0.13,-1.16,0.98,-0.79
56980,0.18,1.00,-0.11,-1.22,0.92,-0.67
57000,0.19,0.99,-0.12,-0.98,0.31,0.18
57020,0.19,1.00,-0.12,-1.16,0.73,-0.12
57040,0.19,0.99,-0.12,-0.61,0.92,-0.12
57060,0.19,0.99,-0.13,-0.73,1.16,-0.85
57080,0.18,1.00,-0.12,-0.98,1.04,-0.98
57100,0.19,1.00,-0.12,-1.16,0.49,-0.18
57120,0.19,0.99,-0.12,-0.79,0.98,-0.49
57140,0.19,0.99,-0.12,-0.61,1.10,-0.49
57160,0.18,1.00,-0.12,-0.43,1.10,-0.61
57180,0.18,1.00,-0.12,-0.55,0.92,0.31
57200,0.19,0.99,-0.13,-0.79,0.18,0.55
57220,0.19,0.99,-0.12,-0.92,0.43,0.37
57240,0.19,0.99,-0.12,-0.92,0.55,0.24
57260,0.18,1.00,-0.12,-1.40,0.67,0.18
57280,0.19,0.99,-0.12,-1.65,0.49,0.73
57300,0.19,0.99,-0.12,-1.71,0.37,0.49
57320,0.19,0.99,-0.12,-1.83,0.18,0.61
57340,0.19,0.99,-0.12,-1.53,0.37,0.49
57360,0.19,0.99,-0.12,-1.34,0.67,0.18
57380,0.19,0.99,-0.12,-1.40,0.43,0.24
57400,0.19,0.99,-0.12,-1.65,0.43,0.18
57420,0.19,0.99,-0.12,-1.71,0.61,-0.12
57440,0.19,1.00,-0.12,-1.46,0.61,-0.06
57460,0.19,1.00,-0.12,-1.16,0.61,0.24
57480,0.19,1.00,-0.12,-1.10,0.24,0.98
57500,0.19,0.99,-0.12,-1.46,0.00,0.98
57520,0.19,0.99,-0.12,-1.46,0.18,0.92
57540,0.19,1.00,-0.12,-1.53,-0.06,1.28
57560,0.20,0.99,-0.12,-2.08,-0.24,1.65
57580,0.19,0.99,-0.12,-2.32,-0.43,2.01
57600,0.19,1.00,-0.12,-2.75,-0.55,2.08
57620,0.20,1.00,-0.11,-2.56,-0.67,2.14
57640,0.20,0.99,-0.12,-2.26,-0.43,2.20
57660,0.20,0.99,-0.12,-2.87,-0.18,2.08
57680,0.20,0.99,-0.13,-3.66,-0.61,2.14
57700,0.21,0.99,-0.12,-5.43,-0.61,2.08
57720,0.21,0.99,-0.11,-5.74,-0.18,2.08
57740,0.21,0.99,-0.11,-5.92,-0.18,1.95
57760,0.21,0.99,-0.10,-4.64,0.37,1.34
57780,0.21,0.99,-0.11,-4.15,0.43,0.92
57800,0.21,0.99,-0.11,-4.03,0.49,0.37
57820,0.21,0.99,-0.10,-4.64,0.31,-0.06
57840,0.21,1.00,-0.10,-4.70,0.00,0.06
57860,0.21,0.99,-0.10,-4.46,-0.06,0.12
57880,0.21,0.99,-0.10,-3.36,0.67,0.12
57900,0.20,1.00,-0.10,-3.78,0.00,0.49
57920,0.21,1.00,-0.10,-3.85,-0.55,1.34
57940,0.19,1.02,-0.11,-4.33,-1.65,3.17
57960,0.17,1.06,-0.09,-3.97,-2.99,7.08
57980,0.21,1.02,-0.10,-3.60,-4.64,11.84
58000,0.23,0.99,-0.10,-3.66,-3.78,11.78
58020,0.25,0.96,-0.10,-5.00,-2.99,9.64
58040,0.25,0.96,-0.12,-7.20,-2.38,8.12
58060,0.25,0.98,-0.11,-9.83,-2.87,6.65
58080,0.25,0.97,-0.08,-12.33,-3.17,5.37
58100,0.26,0.96,-0.07,-12.51,-2.56,3.91
58120,0.26,0.96,-0.05,-13.00,-1.65,2.32
58140,0.25,0.98,-0.03,-11.11,-0.31,0.43
58160,0.25,0.98,-0.04,-7.45,0.43,0.61
58180,0.27,0.96,-0.06,-6.35,0.67,1.28
58200,0.29,0.91,-0.12,-10.50,3.23,-2.44
58220,0.28,0.95,-0.11,-18.49,3.30,-8.36
58240,0.23,1.00,-0.08,-22.64,3.11,-11.23
58260,0.22,1.03,-0.01,-24.35,0.12,-9.09
58280,0.24,1.00,0.01,-22.03,1.65,-5.92
58300,0.24,1.00,-0.00,-21.12,1.53,-8.06
58320,0.23,1.00,0.01,-19.90,1.16,-6.84
58340,0.20,1.03,0.02,-18.86,0.18,-5.49
58360,0.21,1.02,0.02,-18.37,-0.61,-2.75
58380,0.21,1.01,0.01,-18.98,-1.65,0.61
58400,0.23,1.00,-0.02,-20.26,-1.16,1.71
58420,0.24,0.98,-0.03,-23.07,-1.65,1.10
58440,0.22,1.02,-0.00,-26.79,-2.62,1.65
58460,0.22,1.01,0.05,-30.76,-5.98,2.38
58480,0.20,1.02,0.11,-30.46,-8.00,4.15
58500,0.22,1.02,0.17,-27.10,-9.34,7.39
58520,0.25,0.97,0.16,-16.11,-4.52,9.89
58540,0.25,0.98,0.13,-13.85,-1.28,8.73
58560,0.25,0.98,0.10,-14.40,-0.79,7.39
58580,0.24,1.00,0.10,-15.01,-1.22,6.90
58600,0.23,1.03,0.14,-13.49,-3.48,8.79
58620,0.25,1.00,0.18,-8.48,-4.88,11.90
58640,0.26,0.99,0.14,-5.49,-1.40,12.33
58660,0.29,0.96,0.09,-5.37,0.18,11.29
58680,0.28,0.97,0.05,-8.91,2.08,9.28
58700,0.27,1.00,0.09,-13.43,-0.67,9.28
58720,0.29,0.98,0.15,-14.47,-2.87,10.68
58740,0.29,0.95,0.15,-14.10,-2.87,10.74
58760,0.31,0.94,0.16,-15.87,-0.61,7.45
58780,0.32,0.93,0.17,-14.71,-1.40,5.37
58800,0.30,0.96,0.16,-12.51,0.31,3.54
58820,0.29,0.99,0.19,-9.16,-1.89,3.78
58840,0.31,0.93,0.18,-3.60,-1.59,4.76
58860,0.29,0.98,0.19,-3.91,-1.10,4.52
58880,0.27,1.03,0.20,-3.91,0.85,6.04
58900,0.29,1.02,0.17,-1.65,1.46,11.47
58920,0.31,1.00,0.14,-1.04,2.32,14.77
58940,0.34,0.94,0.10,-5.13,3.05,15.93
58960,0.33,0.91,0.10,-12.51,0.73,13.18
58980,0.34,0.94,0.13,-17.21,-1.28,10.56
59000,0.31,1.02,0.22,-18.98,-0.37,11.23
59020,0.34,0.99,0.29,-12.27,1.28,15.75
59040,0.33,0.98,0.32,-1.53,5.80,18.19
59060,0.32,1.00,0.30,4.70,8.85,21.18
59080,0.35,1.01,0.22,10.93,13.31,26.25
59100,0.36,0.98,0.13,10.99,15.63,29.11
59120,0.36,1.04,0.12,9.16,15.69,31.74
59140,0.39,1.00,0.10,4.94,17.94,37.48
59160,0.38,0.96,0.13,4.52,17.82,41.50
59180,0.40,1.00,0.20,4.03,12.33,47.12
59200,0.42,0.94,0.20,8.48,4.15,54.02
59220,0.51,0.83,0.12,3.42,10.86,50.35
59240,0.54,0.81,0.15,4.39,4.70,44.01
59260,0.56,0.70,0.07,2.08,4.70,35.52
59280,0.63,0.54,0.12,4.21,4.58,21.06
59300,0.69,0.50,0.16,0.85,1.89,3.48
59320,0.64,0.60,0.12,-2.56,6.04,-16.72
59340,0.56,0.77,0.23,5.25,3.72,-34.73
59360,0.53,0.80,0.17,9.89,6.23,-41.26
59380,0.49,0.87,0.12,12.88,6.29,-45.65
59400,0.41,0.98,0.05,7.63,7.02,-46.63
59420,0.37,1.04,0.06,2.01,3.36,-42.24
59440,0.39,1.05,0.05,2.38,0.55,-33.57
59460,0.46,0.91,0.11,4.21,0.12,-23.86
59480,0.44,0.89,0.22,7.20,0.79,-27.40
59500,0.41,0.90,0.29,12.63,1.16,-30.46
59520,0.34,1.04,0.14,15.75,6.23,-29.11
59540,0.38,0.99,0.04,17.21,5.74,-25.15
59560,0.38,0.84,-0.02,19.78,4.88,-25.15
59580,0.40,0.87,0.03,18.80,2.08,-34.12
59600,0.33,0.97,0.15,16.30,-0.24,-37.41
59620,0.33,0.97,0.07,17.21,0.98,-36.01
59640,0.27,1.06,0.02,18.74,4.82,-32.90
59660,0.34,0.95,0.06,18.80,1.59,-31.56
59680,0.30,0.88,0.07,21.97,3.36,-34.42
59700,0.24,1.02,0.04,20.08,2.01,-33.69
59720,0.25,1.05,-0.06,13.06,0.67,-28.26
59740,0.27,1.00,-0.07,11.29,1.59,-25.39
59760,0.25,1.03,-0.03,10.80,1.65,-24.78
59780,0.28,0.92,0.11,14.95,0.12,-27.34
59800,0.17,1.05,0.04,18.55,2.38,-26.92
59820,0.23,1.04,-0.02,16.48,0.00,-21.73
59840,0.24,1.00,-0.10,14.95,3.11,-20.32
59860,0.24,1.00,-0.09,13.98,4.88,-22.83
59880,0.23,1.04,0.08,16.60,4.21,-25.09
59900,0.08,1.18,-0.00,25.76,9.83,-15.01
59920,0.14,1.07,-0.12,27.95,5.62,-5.37
59940,0.18,1.01,-0.14,24.11,4.03,-1.95
59960,0.19,0.97,-0.16,16.54,3.05,-4.33
59980,0.24,0.97,-0.11,13.61,3.05,-8.48
60000,0.19,1.01,-0.07,13.31,5.62,-12.82
60020,0.16,1.01,-0.11,10.38,1.46,-13.49
60040,0.15,1.02,-0.10,8.61,-0.24,-11.54
60060,0.18,1.00,-0.12,6.16,-0.12,-8.24
60080,0.18,0.99,-0.14,4.15,0.43,-8.54
60100,0.16,1.00,-0.11,1.53,0.18,-9.09
60120,0.15,1.01,-0.09,0.55,0.37,-8.67
60140,0.15,1.00,-0.10,0.67,0.37,-6.77
60160,0.16,1.00,-0.11,1.46,0.79,-4.64
60180,0.15,1.00,-0.11,1.95,0.18,-4.39
60200,0.15,1.00,-0.13,1.95,-0.67,-3.66
60220,0.16,1.00,-0.12,-0.24,-0.24,-2.56
60240,0.15,1.00,-0.11,-0.85,0.31,-2.32
60260,0.14,1.00,-0.11,0.24,0.12,-1.10
60280,0.15,1.00,-0.11,0.67,0.06,-0.12
60300,0.15,1.00,-0.12,0.18,0.61,0.18
60320,0.16,1.00,-0.12,-0.12,0.67,0.67
60340,0.15,1.00,-0.11,-1.28,1.34,1.16
60360,0.14,1.00,-0.10,-0.67,1.10,1.95
60380,0.16,0.99,-0.13,0.00,0.85,2.56
60400,0.16,0.99,-0.13,-1.89,1.59,2.20
60420,0.16,1.00,-0.12,-2.62,1.40,2.08
60440,0.17,0.99,-0.13,-2.81,1.89,1.77
60460,0.16,1.00,-0.11,-3.60,1.22,0.85
60480,0.17,0.99,-0.13,-2.75,1.71,0.85
60500,0.16,1.00,-0.11,-3.36,1.40,-0.67
60520,0.17,0.99,-0.12,-3.85,1.28,-2.62
60540,0.17,0.99,-0.12,-4.27,1.28,-4.15
60560,0.17,1.00,-0.11,-4.46,1.34,-5.55
60580,0.16,1.00,-0.11,-3.72,1.71,-6.84
60600,0.16,1.00,-0.10,-2.20,2.08,-6.84
60620,0.15,1.00,-0.10,-1.22,1.59,-7.14
60640,0.14,1.00,-0.11,-0.67,0.98,-5.74
60660,0.16,0.99,-0.12,-1.59,-0.73,-4.46
60680,0.15,1.00,-0.11,-1.53,0.67,-5.68
60700,0.15,1.00,-0.11,-0.55,0.43,-6.41
60720,0.13,1.01,-0.11,0.92,1.65,-7.08
60740,0.13,1.01,-0.10,1.16,1.34,-5.37
60760,0.14,1.00,-0.11,1.71,2.01,-4.03
60780,0.14,1.00,-0.12,1.59,3.72,-2.99
60800,0.15,0.99,-0.13,1.53,4.82,-3.91
60820,0.13,1.00,-0.12,1.22,5.68,-4.76
60840,0.12,1.00,-0.12,1.04,3.48,-3.36
60860,0.11,1.01,-0.10,1.16,1.83,-0.06
60880,0.12,1.00,-0.11,1.65,0.18,2.38
60900,0.15,0.99,-0.13,1.95,-0.43,3.36
60920,0.13,1.00,-0.11,3.30,0.31,3.66
60940,0.14,1.01,-0.11,4.76,-0.55,4.33
60960,0.13,1.00,-0.13,7.26,1.10,5.19
60980,0.12,1.00,-0.12,7.08,-0.37,8.73
61000,0.16,0.99,-0.15,5.98,-1.04,12.82
61020,0.16,0.99,-0.13,4.76,-0.92,12.08
61040,0.14,1.01,-0.12,5.62,0.06,10.19
61060,0.16,1.00,-0.13,6.47,-0.67,14.22
61080,0.19,0.99,-0.17,6.16,2.99,13.85
61100,0.22,0.96,-0.20,2.38,5.43,11.05
61120,0.19,0.99,-0.15,0.31,7.57,5.86
61140,0.18,1.00,-0.14,0.85,8.18,4.33
61160,0.15,1.01,-0.13,3.72,7.87,4.33
61180,0.17,0.99,-0.16,3.30,6.41,7.57
61200,0.17,0.99,-0.15,2.26,7.57,10.19
61220,0.20,0.98,-0.17,-0.61,8.97,12.39
61240,0.20,0.96,-0.20,-1.34,9.40,11.23
61260,0.21,0.98,-0.15,-3.97,6.90,9.28
61280,0.20,0.98,-0.16,-1.65,7.51,8.06
61300,0.21,0.97,-0.17,-2.87,6.65,10.13
61320,0.24,0.96,-0.19,-4.64,7.57,8.61
61340,0.23,0.97,-0.18,-6.47,7.39,3.48
61360,0.20,1.00,-0.13,-7.81,6.71,3.54
61380,0.18,1.01,-0.14,-6.84,5.55,5.43
