timestamp,accX,accY,accZ,gyrX,gyrY,gyrZ
0,0.19,0.98,-0.19,-3.72,-0.24,-0.18
20,0.19,0.98,-0.18,-4.39,-0.55,0.12
40,0.19,0.98,-0.18,-4.82,-0.55,0.37
60,0.18,0.99,-0.18,-6.29,-1.28,1.46
80,0.18,0.99,-0.18,-7.26,-1.95,1.89
100,0.19,0.98,-0.19,-9.22,-2.69,2.20
120,0.18,0.99,-0.18,-12.76,-4.15,2.87
140,0.20,0.99,-0.15,-15.32,-5.00,3.78
160,0.20,1.00,-0.14,-15.56,-4.46,4.03
180,0.20,0.99,-0.14,-14.83,-4.15,4.39
200,0.21,1.00,-0.14,-13.67,-3.48,4.33
220,0.21,1.00,-0.13,-13.43,-3.05,4.64
240,0.21,0.99,-0.12,-12.21,-1.83,4.64
260,0.21,1.00,-0.11,-10.86,-1.53,5.49
280,0.21,1.00,-0.10,-8.06,-1.04,6.53
300,0.20,1.01,-0.12,-6.59,-0.98,8.00
320,0.21,1.03,-0.12,-5.31,-2.32,10.80
340,0.22,1.01,-0.12,-4.76,-2.81,12.76
360,0.24,0.99,-0.13,-4.09,-3.05,14.28
380,0.23,1.02,-0.10,-2.44,-2.50,14.40
400,0.22,1.06,-0.10,0.31,-2.56,17.15
420,0.25,1.06,-0.10,1.71,-2.99,22.22
440,0.25,1.00,-0.18,-0.24,-2.93,27.53
460,0.25,1.04,-0.19,-4.09,-4.09,29.60
480,0.28,1.00,-0.16,-8.73,-6.65,32.59
500,0.29,0.99,-0.12,-12.08,-8.18,33.20
520,0.32,0.99,-0.08,-11.29,-8.18,34.00
540,0.32,0.99,-0.08,-9.89,-7.93,35.28
560,0.34,0.97,-0.06,-8.30,-8.54,36.19
580,0.34,0.96,-0.07,-6.53,-8.12,36.80
600,0.36,0.98,-0.08,-6.96,-9.03,37.60
620,0.37,0.97,-0.10,-8.06,-9.83,38.64
640,0.41,0.92,-0.09,-9.95,-11.05,41.08
660,0.40,0.93,-0.07,-10.74,-11.54,40.10
680,0.40,1.02,0.01,-7.02,-13.92,41.32
700,0.49,0.84,0.05,-2.01,-19.10,47.73
720,0.54,0.73,-0.01,-0.37,-13.98,42.42
740,0.56,0.65,-0.07,0.06,-8.42,32.90
760,0.53,0.75,-0.10,0.06,-1.16,15.81
780,0.55,0.74,-0.03,0.06,-4.70,9.34
800,0.54,0.75,-0.05,0.31,-3.11,2.69
820,0.54,0.78,-0.03,1.46,-2.62,-6.35
840,0.54,0.80,-0.03,2.20,-1.53,-11.78
860,0.54,0.77,-0.02,1.83,-0.24,-17.46
880,0.58,0.67,-0.01,2.14,4.39,-32.96
900,0.54,0.65,0.01,4.70,8.36,-47.73
920,0.43,0.83,-0.00,10.01,12.70,-58.53
940,0.41,0.95,-0.04,12.76,13.79,-59.45
960,0.41,0.96,-0.09,9.22,8.67,-53.04
980,0.39,0.92,-0.12,7.51,13.85,-53.59
1000,0.41,0.85,-0.01,5.62,14.59,-62.38
1020,0.38,0.66,-0.00,12.33,23.68,-71.78
1040,0.16,1.16,-0.20,11.90,33.08,-78.80
1060,0.26,1.24,-0.24,7.39,17.64,-65.31
1080,0.24,1.23,-0.11,5.25,13.79,-48.71
1100,0.34,0.97,-0.12,9.40,18.80,-42.66
1120,0.43,0.76,-0.32,6.84,32.35,-48.71
1140,-0.19,1.49,0.07,-1.34,18.74,-43.52
1160,0.14,1.10,-0.04,-4.03,-4.46,-4.15
1180,0.28,0.91,-0.12,-1.77,-2.50,0.55
1200,0.24,0.98,-0.14,3.54,6.47,-11.35
1220,0.20,0.99,-0.15,7.45,9.16,-16.24
1240,0.17,0.99,-0.16,6.90,7.39,-17.82
1260,0.14,1.01,-0.14,-0.43,1.95,-13.06
1280,0.15,1.01,-0.12,-1.53,0.18,-10.56
1300,0.16,1.01,-0.11,-0.67,-0.55,-8.42
1320,0.16,1.00,-0.13,0.12,-0.98,-5.86
1340,0.16,1.00,-0.14,0.31,-0.49,-4.39
1360,0.16,1.00,-0.14,-0.55,0.24,-3.36
1380,0.16,1.00,-0.13,-1.16,0.31,-1.77
1400,0.16,1.00,-0.13,-0.61,0.55,-0.67
1420,0.16,1.00,-0.14,-0.85,0.00,0.31
1440,0.15,0.99,-0.14,-1.53,0.06,1.16
1460,0.16,0.99,-0.15,-3.60,-2.38,4.39
1480,0.15,1.00,-0.15,-6.71,-4.33,6.29
1500,0.16,1.00,-0.13,-9.89,-6.71,8.30
1520,0.13,1.04,-0.09,-16.30,-10.62,13.43
1540,0.17,1.02,-0.12,-18.19,-11.90,18.37
1560,0.19,1.03,-0.12,-18.98,-13.92,21.06
1580,0.18,1.08,-0.13,-16.66,-15.44,24.66
1600,0.21,1.07,-0.14,-12.63,-16.24,28.14
1620,0.22,1.09,-0.16,-12.51,-15.87,30.46
1640,0.25,1.08,-0.16,-16.54,-14.95,37.48
1660,0.23,1.11,-0.17,-22.58,-11.11,40.65
1680,0.25,1.08,-0.13,-27.10,-13.67,46.08
1700,0.26,1.05,-0.06,-32.53,-14.65,51.15
1720,0.29,1.02,-0.04,-33.57,-14.28,53.65
1740,0.32,0.95,0.02,-32.90,-14.47,55.85
1760,0.32,1.00,0.06,-27.65,-13.49,58.84
1780,0.36,0.93,0.11,-22.28,-13.67,62.13
1800,0.44,0.84,0.08,-19.59,-11.84,62.44
1820,0.47,0.77,0.01,-18.74,-7.87,53.89
1840,0.51,0.73,-0.01,-18.43,-3.91,45.17
1860,0.52,0.74,0.03,-15.14,-4.27,35.52
1880,0.52,0.78,0.08,-11.72,-5.07,26.92
1900,0.53,0.79,0.13,-4.88,-5.19,17.70
1920,0.55,0.75,0.14,-0.61,-3.05,11.78
1940,0.59,0.65,0.14,4.03,0.12,2.62
1960,0.61,0.52,0.18,13.73,7.69,-21.48
1980,0.51,0.65,0.10,23.50,13.79,-40.47
2000,0.42,0.95,0.02,30.82,10.99,-48.28
2020,0.44,0.96,-0.06,28.75,3.85,-40.59
2040,0.50,0.74,-0.09,22.95,7.26,-41.14
2060,0.55,0.62,-0.05,16.60,14.65,-54.75
2080,0.36,0.81,-0.04,13.06,21.48,-74.65
2100,0.25,1.07,-0.05,8.97,17.64,-75.81
2120,0.22,1.25,-0.04,6.35,11.17,-66.41
2140,0.28,1.15,0.02,16.30,9.64,-50.60
2160,0.45,0.54,0.10,22.89,17.76,-56.40
2180,0.49,0.83,-0.20,21.24,43.64,-81.48
2200,-0.30,1.96,-0.70,21.00,57.56,-75.99
2220,0.15,1.18,0.00,13.55,-5.37,-7.57
2240,0.29,0.91,-0.19,2.20,7.08,0.92
2260,0.31,0.93,-0.10,-1.59,3.66,-14.65
2280,0.20,1.01,-0.06,6.59,15.14,-18.74
2300,0.14,1.03,-0.08,10.01,11.90,-19.65
2320,0.13,1.02,-0.10,9.09,5.55,-14.47
2340,0.18,0.99,-0.12,2.87,-1.04,-7.57
2360,0.19,1.00,-0.11,1.65,-2.20,-7.93
2380,0.18,1.00,-0.11,0.98,-1.53,-7.81
2400,0.18,1.00,-0.10,0.92,-0.24,-7.39
2420,0.17,1.01,-0.10,1.40,0.79,-6.29
2440,0.16,1.00,-0.10,1.83,1.22,-4.58
2460,0.18,1.00,-0.12,1.28,1.28,-1.83
2480,0.17,1.00,-0.11,1.22,1.34,-2.08
2500,0.17,1.00,-0.11,1.16,0.85,-1.89
2520,0.17,1.00,-0.11,0.43,0.98,-1.59
2540,0.17,1.00,-0.12,0.12,1.46,-1.04
2560,0.17,1.00,-0.12,0.00,1.77,-0.61
2580,0.17,1.00,-0.11,0.06,1.59,-0.37
2600,0.16,1.00,-0.11,0.31,1.16,0.67
2620,0.14,1.00,-0.11,-0.79,0.06,2.38
2640,0.14,1.00,-0.13,-3.05,-3.97,7.63
2660,0.16,1.03,-0.12,-9.64,-7.26,11.96
2680,0.18,1.02,-0.10,-13.55,-8.97,15.08
2700,0.10,1.12,-0.11,-14.77,-8.79,19.10
2720,0.04,1.35,-0.11,-9.95,-15.44,37.66
2740,0.20,1.26,-0.14,-0.18,-24.78,55.54
2760,0.29,1.07,-0.16,4.58,-17.64,63.11
2780,0.25,1.06,-0.28,-8.24,-10.25,61.95
2800,0.27,1.04,-0.24,-17.09,-14.47,64.45
2820,0.29,1.02,-0.20,-26.31,-17.64,65.80
2840,0.31,0.97,-0.05,-35.03,-21.30,68.36
2860,0.36,0.88,0.03,-36.93,-21.36,68.66
2880,0.40,0.87,0.03,-35.77,-16.36,65.31
2900,0.46,0.80,0.06,-30.76,-11.54,58.35
2920,0.47,0.82,0.08,-26.25,-9.03,51.88
2940,0.50,0.80,0.07,-21.91,-9.95,46.14
2960,0.53,0.75,0.07,-18.55,-8.36,38.09
2980,0.54,0.75,0.06,-13.55,-5.37,30.27
3000,0.54,0.75,0.08,-10.25,-4.21,23.80
3020,0.55,0.76,0.09,-5.07,-2.99,15.63
3040,0.58,0.71,0.06,-1.83,-0.85,9.34
3060,0.59,0.71,0.04,0.55,1.34,1.83
3080,0.59,0.70,0.07,3.66,2.50,-12.27
3100,0.57,0.71,0.10,10.19,4.88,-22.52
3120,0.56,0.71,0.14,15.87,6.29,-31.98
3140,0.55,0.71,0.06,18.74,11.60,-41.08
3160,0.53,0.73,0.01,21.36,12.51,-53.59
3180,0.45,0.83,-0.06,22.22,17.40,-62.50
3200,0.38,0.96,-0.04,23.01,14.77,-64.76
3220,0.38,0.92,-0.01,21.73,10.01,-60.24
3240,0.35,0.87,-0.03,17.15,12.76,-59.33
3260,0.35,0.97,-0.19,9.70,17.70,-60.30
3280,0.24,1.21,-0.06,5.86,13.00,-53.71
3300,0.31,1.03,0.09,9.58,7.45,-45.29
3320,0.26,0.96,0.07,16.30,12.63,-42.91
3340,0.29,1.02,-0.18,17.09,14.83,-34.61
3360,0.30,1.04,-0.24,9.52,17.09,-33.57
3380,0.37,0.90,-0.12,3.30,15.26,-35.03
3400,0.42,0.78,-0.28,-3.91,40.47,-59.69
3420,-0.14,1.48,-0.02,-1.10,43.82,-70.50
3440,-0.04,1.26,0.13,11.90,2.20,-28.69
3460,0.22,0.96,-0.16,-0.67,-0.24,-5.07
3480,0.21,0.99,-0.09,-0.61,-3.78,-10.31
3500,0.20,1.00,-0.10,0.98,2.08,-9.95
3520,0.20,1.00,-0.10,0.49,2.99,-10.68
3540,0.18,1.00,-0.09,1.22,3.42,-9.77
3560,0.17,1.00,-0.10,1.28,1.53,-8.79
3580,0.17,1.00,-0.09,1.22,-0.31,-7.39
3600,0.17,1.00,-0.09,0.67,-0.37,-4.82
3620,0.17,1.00,-0.09,0.55,-0.43,-3.11
3640,0.17,1.00,-0.10,0.61,-0.18,-1.77
3660,0.17,1.00,-0.10,0.79,0.18,-0.37
3680,0.18,1.00,-0.11,0.49,0.12,0.18
3700,0.18,1.00,-0.10,0.43,0.43,0.00
3720,0.18,0.99,-0.11,-0.24,0.12,0.18
3740,0.18,0.99,-0.12,-1.22,-0.24,0.00
3760,0.17,1.00,-0.11,-2.69,-0.67,0.06
3780,0.18,1.00,-0.10,-4.33,-1.22,1.10
3800,0.18,1.00,-0.10,-5.31,-1.83,1.83
3820,0.18,1.00,-0.10,-6.29,-2.32,2.14
3840,0.17,1.00,-0.09,-6.41,-1.83,2.81
3860,0.14,1.01,-0.10,-7.87,-2.14,4.46
3880,0.16,1.03,-0.07,-12.02,-5.07,9.77
3900,0.19,1.02,-0.08,-13.85,-5.37,14.71
3920,0.17,1.06,-0.08,-13.79,-4.15,16.60
3940,0.18,1.09,-0.10,-12.76,-7.87,22.40
3960,0.16,1.14,-0.12,-11.72,-12.33,45.17
3980,0.18,1.20,-0.17,-8.91,-17.27,40.89
4000,0.25,1.08,-0.13,-9.46,-16.11,46.81
4020,0.24,1.11,-0.12,-17.40,-11.41,48.65
4040,0.27,1.02,-0.09,-24.72,-10.99,52.55
4060,0.28,1.03,-0.06,-27.47,-10.80,53.77
4080,0.29,1.01,0.00,-29.36,-12.51,55.91
4100,0.36,0.91,0.02,-29.91,-10.86,59.33
4120,0.39,0.88,0.01,-29.91,-7.75,56.76
4140,0.41,0.87,0.04,-29.79,-6.96,53.53
4160,0.44,0.82,0.11,-25.63,-5.25,49.50
4180,0.45,0.85,0.10,-21.73,-5.07,45.78
4200,0.48,0.83,0.10,-19.29,-5.98,43.70
4220,0.50,0.80,0.04,-15.32,-2.93,36.74
4240,0.51,0.79,0.05,-12.70,-2.62,31.98
4260,0.52,0.82,0.07,-10.38,-2.08,27.28
4280,0.55,0.77,0.09,-7.57,-2.62,21.00
4300,0.60,0.67,0.12,-3.97,-2.01,13.24
4320,0.63,0.55,0.18,0.43,0.73,0.37
4340,0.64,0.51,0.21,7.02,5.62,-28.32
4360,0.52,0.75,0.19,21.48,11.47,-44.37
4380,0.48,0.87,0.13,30.21,8.36,-49.93
4400,0.46,0.89,0.04,32.47,7.75,-50.90
4420,0.49,0.76,-0.04,29.85,10.99,-58.35
4440,0.47,0.58,-0.06,28.26,15.01,-69.34
4460,0.30,0.93,-0.11,21.97,19.41,-79.53
4480,0.25,1.19,-0.03,16.11,5.43,-68.36
4500,0.32,1.03,0.01,17.09,2.93,-57.07
4520,0.36,0.93,0.02,17.94,6.47,-58.53
4540,0.34,0.71,-0.06,20.32,27.65,-77.03
4560,0.23,1.21,-0.08,15.81,27.22,-85.88
4580,0.06,1.60,-0.40,15.20,32.71,-69.58
4600,0.14,1.18,-0.03,1.89,1.28,-22.34
4620,0.29,0.99,-0.09,-0.55,2.93,-13.31
4640,0.23,0.99,-0.06,-0.37,11.60,-18.80
4660,0.16,1.04,-0.02,7.75,12.27,-19.96
4680,0.14,1.03,-0.05,9.83,10.25,-15.69
4700,0.15,1.02,-0.06,10.19,5.49,-10.68
4720,0.17,1.00,-0.09,9.16,4.15,-4.33
4740,0.18,1.00,-0.10,5.98,2.62,-3.91
4760,0.18,1.00,-0.10,3.91,1.95,-3.42
4780,0.17,1.00,-0.09,2.20,1.53,-3.05
4800,0.18,1.01,-0.07,2.20,0.79,-1.34
4820,0.18,1.00,-0.09,4.39,2.62,-0.37
4840,0.18,1.00,-0.10,4.03,1.83,-0.18
4860,0.18,0.99,-0.11,2.26,1.22,-0.79
4880,0.18,0.99,-0.11,0.61,0.79,-1.40
4900,0.18,1.00,-0.10,-0.73,0.85,-1.65
4920,0.18,1.00,-0.10,-1.34,0.49,-1.83
4940,0.18,1.00,-0.09,-1.22,0.49,-1.89
4960,0.18,1.00,-0.09,-0.79,0.49,-1.83
4980,0.17,1.00,-0.09,0.06,1.04,-1.16
5000,0.18,1.00,-0.10,0.67,1.71,-0.49
5020,0.18,1.00,-0.10,1.16,2.14,0.06
5040,0.18,1.00,-0.10,1.10,2.56,0.67
5060,0.18,1.00,-0.10,1.04,2.99,1.04
5080,0.18,0.99,-0.11,0.85,3.42,1.28
5100,0.17,1.00,-0.10,-0.12,3.30,1.71
5120,0.17,0.99,-0.12,-3.17,0.73,3.05
5140,0.16,1.00,-0.11,-6.84,-0.43,4.76
5160,0.13,1.01,-0.10,-11.17,-3.97,9.16
5180,0.11,1.06,-0.06,-17.58,-8.12,14.77
5200,0.11,1.15,-0.12,-21.61,-11.11,24.23
5220,0.11,1.24,-0.13,-18.43,-18.68,34.06
5240,0.29,1.09,-0.11,-8.91,-23.80,47.12
5260,0.31,1.05,-0.15,-9.40,-14.65,45.84
5280,0.25,1.08,-0.15,-17.27,-10.13,44.80
5300,0.25,1.07,-0.10,-24.48,-9.40,48.34
5320,0.27,1.03,-0.05,-27.16,-11.72,51.88
5340,0.29,1.00,-0.01,-28.81,-12.76,53.83
5360,0.33,0.94,0.04,-27.89,-12.02,56.09
5380,0.38,0.91,0.03,-25.63,-9.77,56.34
5400,0.38,0.90,0.02,-23.99,-8.12,54.08
5420,0.42,0.89,0.04,-22.58,-7.51,53.04
5440,0.45,0.86,0.03,-21.97,-7.81,51.70
5460,0.47,0.84,0.05,-21.97,-7.51,48.77
5480,0.51,0.78,0.08,-18.86,-6.04,41.20
5500,0.52,0.76,0.09,-16.11,-4.33,34.06
5520,0.56,0.70,0.12,-11.90,-3.78,27.10
5540,0.57,0.69,0.12,-5.68,-1.28,12.51
5560,0.61,0.62,0.16,-2.32,0.24,0.79
5580,0.61,0.60,0.19,2.87,3.66,-13.92
5600,0.59,0.62,0.20,10.25,9.28,-38.27
5620,0.49,0.76,0.15,24.60,13.49,-50.54
5640,0.46,0.84,0.07,30.46,11.60,-55.60
5660,0.47,0.77,-0.02,31.01,11.05,-58.41
5680,0.41,0.86,-0.10,25.51,15.08,-71.35
5700,0.39,0.93,-0.00,23.01,11.84,-74.58
5720,0.21,1.09,-0.03,22.22,12.63,-73.73
5740,0.28,1.08,-0.05,15.01,3.05,-53.47
5760,0.32,1.03,-0.12,12.08,6.10,-48.95
5780,0.36,0.86,-0.05,11.90,12.88,-51.21
5800,0.37,0.84,0.05,16.30,20.20,-68.79
5820,0.14,1.43,-0.10,20.20,29.48,-76.11
5840,-0.14,1.62,-0.46,26.73,26.92,-49.87
5860,0.21,1.08,-0.14,7.14,3.48,-14.40
5880,0.27,0.99,-0.13,-1.04,7.69,-13.73
5900,0.19,1.03,-0.03,-2.26,10.93,-18.80
5920,0.19,1.02,-0.00,7.81,13.37,-17.70
5940,0.14,1.02,-0.07,12.45,11.96,-15.26
5960,0.16,1.01,-0.09,10.99,6.16,-10.93
5980,0.17,1.00,-0.11,7.45,2.01,-5.62
6000,0.18,1.00,-0.09,2.99,1.46,-4.15
6020,0.18,1.00,-0.09,2.08,2.08,-3.11
6040,0.18,1.00,-0.09,1.71,2.01,-2.93
6060,0.17,1.00,-0.09,3.36,2.32,-1.46
6080,0.18,1.00,-0.09,3.66,1.95,-0.79
6100,0.18,1.00,-0.10,3.97,1.46,-0.85
6120,0.18,0.99,-0.11,3.11,0.67,-1.65
6140,0.18,0.99,-0.12,1.71,0.24,-2.26
6160,0.18,1.00,-0.11,0.24,-0.12,-2.81
6180,0.17,1.00,-0.10,-1.53,-0.18,-2.56
6200,0.17,1.00,-0.10,-1.77,0.00,-2.14
6220,0.18,1.00,-0.10,-1.28,0.12,-1.40
6240,0.18,1.00,-0.10,-0.24,0.67,-0.79
6260,0.18,1.00,-0.11,-0.06,0.98,-0.55
6280,0.18,1.00,-0.11,-0.24,1.46,-0.06
6300,0.18,1.00,-0.10,-0.31,1.22,0.49
6320,0.18,1.00,-0.11,-0.06,1.53,0.61
6340,0.18,1.00,-0.11,-0.37,1.71,0.73
6360,0.17,1.00,-0.11,-1.53,2.01,0.73
6380,0.15,1.00,-0.11,-2.38,1.95,1.40
6400,0.17,1.00,-0.12,-4.70,-0.61,3.17
6420,0.14,1.00,-0.10,-7.32,-3.48,6.29
6440,0.14,1.02,-0.09,-14.16,-6.23,9.83
6460,0.18,1.03,-0.08,-17.21,-8.97,15.20
6480,0.17,1.06,-0.07,-17.76,-6.04,17.40
6500,0.17,1.08,-0.06,-11.78,-7.93,25.15
6520,0.16,1.15,-0.09,-6.77,-10.13,31.98
6540,0.19,1.16,-0.12,-4.03,-14.04,39.31
6560,0.29,1.10,-0.12,-4.52,-13.73,50.05
6580,0.25,1.13,-0.21,-11.66,-7.81,54.02
6600,0.28,1.05,-0.20,-17.76,-10.01,57.98
6620,0.29,1.02,-0.15,-30.88,-12.45,59.33
6640,0.32,0.96,-0.07,-37.29,-15.81,59.88
6660,0.34,0.95,-0.02,-40.16,-14.77,60.18
6680,0.40,0.87,0.06,-39.61,-13.18,59.63
6700,0.42,0.83,0.10,-37.35,-10.38,55.36
6720,0.45,0.79,0.11,-33.08,-8.73,50.78
6740,0.47,0.81,0.08,-27.40,-7.57,42.72
6760,0.51,0.77,0.10,-24.11,-6.59,36.87
6780,0.51,0.78,0.10,-19.84,-4.76,30.33
6800,0.52,0.78,0.13,-14.71,-3.85,22.34
6820,0.55,0.76,0.13,-9.03,-2.32,16.48
6840,0.57,0.70,0.13,-4.33,-0.31,9.46
6860,0.60,0.60,0.17,0.49,2.50,-7.08
6880,0.58,0.64,0.15,9.70,8.97,-22.64
6900,0.54,0.69,0.20,18.68,9.95,-36.07
6920,0.48,0.80,0.18,28.20,11.05,-46.20
6940,0.43,0.92,0.06,35.89,9.70,-49.44
6960,0.44,0.90,-0.05,34.18,10.44,-48.71
6980,0.48,0.79,-0.11,29.48,13.06,-51.39
7000,0.42,0.81,-0.11,21.67,17.70,-67.69
7020,0.21,1.10,0.05,22.16,13.18,-71.35
7040,0.24,1.12,0.05,22.64,6.35,-58.17
7060,0.36,0.86,-0.07,20.69,6.65,-47.67
7080,0.39,0.86,-0.16,15.56,14.95,-55.85
7100,0.42,0.80,-0.07,13.37,21.73,-70.01
7120,0.33,1.28,-0.12,14.10,45.23,-98.02
7140,-0.53,1.82,-0.34,28.81,65.55,-86.06
7160,0.18,1.14,0.08,16.36,-17.88,-7.69
7180,0.21,0.97,-0.22,-6.23,2.26,-1.46
7200,0.25,0.98,-0.04,-1.40,1.04,-7.63
7220,0.21,1.00,-0.06,5.68,12.45,-9.89
7240,0.17,1.00,-0.09,9.22,9.03,-12.27
7260,0.16,1.00,-0.10,6.16,6.10,-9.34
7280,0.18,0.99,-0.11,3.48,2.26,-5.98
7300,0.19,1.00,-0.10,1.34,0.00,-5.25
7320,0.18,1.00,-0.10,-0.24,0.00,-5.62
7340,0.17,1.00,-0.09,-1.53,-0.37,-5.74
7360,0.17,1.01,-0.08,-1.22,-0.49,-4.52
7380,0.17,1.00,-0.08,0.49,-0.18,-2.20
7400,0.18,1.00,-0.09,1.53,0.49,-1.53
7420,0.18,1.00,-0.10,1.71,0.79,-1.34
7440,0.18,1.00,-0.11,0.61,0.61,-1.77
7460,0.17,1.00,-0.10,-0.61,0.37,-1.65
7480,0.17,1.00,-0.09,-1.04,0.31,-1.22
7500,0.17,1.00,-0.09,-0.43,0.31,-0.85
7520,0.18,1.00,-0.10,-0.06,0.37,-0.61
7540,0.18,1.00,-0.10,0.43,0.49,-0.55
7560,0.17,1.03,-0.10,0.43,0.85,-0.24
7580,0.18,1.00,-0.11,0.37,1.10,0.37
7600,0.18,1.00,-0.10,0.06,1.40,0.37
7620,0.18,1.00,-0.10,-0.24,1.83,0.37
7640,0.17,1.00,-0.10,-0.61,2.14,0.37
7660,0.18,1.00,-0.11,-1.04,2.01,0.49
7680,0.16,1.00,-0.10,-0.79,1.83,1.40
7700,0.17,1.00,-0.11,-2.38,0.73,2.26
7720,0.17,1.00,-0.10,-3.78,-0.49,2.62
7740,0.16,1.00,-0.10,-4.03,-0.92,3.36
7760,0.14,1.01,-0.09,-8.67,-2.75,6.53
7780,0.16,1.02,-0.08,-11.60,-5.86,10.68
7800,0.16,1.02,-0.09,-13.12,-5.62,14.10
7820,0.20,1.04,-0.07,-13.92,-8.79,20.75
7840,0.18,1.06,-0.09,-11.72,-8.85,24.54
7860,0.18,1.14,-0.12,-9.70,-12.08,29.66
7880,0.22,1.17,-0.12,-8.36,-13.67,39.06
7900,0.21,1.22,-0.11,-9.52,-13.73,46.88
7920,0.25,1.16,-0.16,-15.20,-11.17,55.60
7940,0.27,1.04,-0.17,-25.94,-13.24,63.66
7960,0.30,0.99,-0.13,-34.18,-12.94,64.88
7980,0.30,0.97,-0.04,-38.94,-14.22,65.61
8000,0.34,0.91,0.09,-39.79,-12.39,66.71
8020,0.41,0.84,0.10,-36.13,-10.56,63.96
8040,0.44,0.78,0.10,-32.47,-6.77,59.14
8060,0.49,0.71,0.10,-27.65,-3.85,48.03
8080,0.52,0.70,0.08,-23.68,-3.23,38.09
8100,0.54,0.69,0.09,-18.80,-2.56,28.56
8120,0.54,0.69,0.13,-12.57,-2.20,14.16
8140,0.56,0.68,0.20,-3.05,-0.18,3.42
8160,0.58,0.64,0.19,2.81,2.50,-7.26
8180,0.57,0.65,0.11,9.16,6.90,-21.48
8200,0.52,0.76,0.11,18.37,8.00,-39.12
8220,0.47,0.84,0.10,22.03,8.91,-46.88
8240,0.47,0.76,0.08,24.90,7.39,-51.15
8260,0.38,0.88,-0.00,27.34,12.08,-60.06
8280,0.37,0.94,0.01,27.04,10.62,-60.24
8300,0.34,0.89,-0.03,27.83,9.58,-60.42
8320,0.31,0.95,-0.08,20.51,10.56,-61.40
8340,0.34,0.93,-0.09,14.71,10.19,-61.83
8360,0.33,0.97,-0.05,12.82,13.85,-66.96
8380,0.34,0.76,0.12,21.48,21.18,-80.44
8400,0.25,1.32,-0.16,27.77,37.54,-95.09
8420,-0.33,1.63,-0.23,34.67,56.46,-73.43
8440,0.12,1.18,0.07,7.51,-5.92,-0.06
8460,0.25,0.95,-0.14,-1.10,6.47,-3.60
8480,0.20,1.00,-0.05,-0.85,5.80,-11.35
8500,0.17,1.02,-0.04,2.14,14.59,-9.77
8520,0.17,1.01,-0.07,7.51,9.03,-8.97
8540,0.16,1.01,-0.09,8.18,6.77,-6.65
8560,0.17,0.99,-0.11,7.14,3.72,-4.64
8580,0.18,0.99,-0.11,1.95,0.24,-4.39
8600,0.18,1.00,-0.10,-1.04,-0.31,-5.19
8620,0.17,1.00,-0.09,-1.77,-1.22,-5.25
8640,0.17,1.00,-0.08,-1.22,-1.22,-3.85
8660,0.17,1.00,-0.09,-0.61,-0.79,-2.50
8680,0.18,1.00,-0.10,-0.49,-0.12,-1.77
8700,0.18,1.00,-0.10,-0.31,0.43,-2.01
8720,0.17,1.00,-0.10,-0.73,0.73,-2.38
8740,0.17,1.00,-0.09,-1.28,0.12,-2.50
8760,0.17,1.00,-0.09,-1.65,0.06,-1.83
8780,0.17,1.00,-0.09,-1.28,-0.06,-1.59
8800,0.17,1.00,-0.09,-0.85,0.00,-1.10
8820,0.17,0.97,-0.10,-0.18,0.18,-0.73
8840,0.18,1.00,-0.10,-0.43,0.61,-0.55
8860,0.17,1.00,-0.09,-0.67,0.98,-0.49
8880,0.17,1.00,-0.10,-1.16,1.34,-0.24
8900,0.17,1.00,-0.09,-1.16,1.34,0.00
8920,0.16,1.00,-0.09,-1.34,1.16,0.12
8940,0.16,1.00,-0.09,-1.77,0.73,1.53
8960,0.16,1.00,-0.10,-3.17,-0.67,2.20
8980,0.17,1.00,-0.10,-4.64,-1.83,2.81
9000,0.17,1.01,-0.09,-5.98,-2.75,3.97
9020,0.14,1.02,-0.08,-7.08,-3.42,5.92
9040,0.14,1.02,-0.08,-9.28,-5.31,9.70
9060,0.13,1.04,-0.08,-13.00,-7.39,15.32
9080,0.13,1.12,-0.10,-16.72,-11.72,26.79
9100,0.12,1.24,-0.14,-15.81,-14.83,35.95
9120,0.21,1.18,-0.12,-10.19,-17.15,45.04
9140,0.23,1.19,-0.11,-9.22,-11.35,52.12
9160,0.23,1.18,-0.18,-15.81,-8.73,59.69
9180,0.24,1.12,-0.23,-25.57,-9.58,67.50
9200,0.29,1.00,-0.12,-41.50,-12.94,74.40
9220,0.32,0.92,-0.02,-46.81,-13.06,75.81
9240,0.37,0.85,0.08,-47.00,-12.39,73.85
9260,0.42,0.78,0.14,-40.71,-8.54,65.43
9280,0.47,0.74,0.15,-35.28,-5.86,57.37
9300,0.51,0.71,0.17,-28.14,-5.19,47.73
9320,0.51,0.73,0.15,-18.68,-3.97,33.08
9340,0.54,0.73,0.12,-14.40,-3.60,25.39
9360,0.54,0.75,0.09,-10.86,-2.14,16.60
9380,0.55,0.76,0.08,-8.36,-1.53,5.49
9400,0.55,0.75,0.11,-4.94,-0.55,-0.85
9420,0.55,0.71,0.20,-0.06,0.06,-9.22
9440,0.56,0.69,0.23,6.47,3.97,-19.47
9460,0.52,0.68,0.22,20.57,9.64,-36.87
9480,0.47,0.77,0.10,28.69,12.08,-46.20
9500,0.46,0.84,-0.01,30.88,10.44,-50.48
9520,0.43,0.94,-0.00,27.40,7.20,-54.69
9540,0.44,0.80,0.09,27.40,8.12,-57.19
9560,0.37,0.77,0.07,29.17,12.76,-64.94
9580,0.29,1.03,-0.07,26.67,7.75,-66.04
9600,0.26,1.09,-0.10,22.22,5.74,-59.81
9620,0.27,1.10,-0.05,18.98,2.87,-55.60
9640,0.39,0.69,0.03,21.18,8.61,-58.35
9660,0.43,0.82,-0.13,20.94,22.95,-76.72
9680,0.28,1.43,-0.45,15.93,40.95,-89.29
9700,-0.27,1.66,0.19,9.70,-6.41,-28.32
9720,0.26,0.96,-0.12,4.21,4.82,-6.96
9740,0.25,0.96,-0.09,5.31,8.06,-12.45
9760,0.17,1.01,-0.05,7.81,13.43,-17.70
9780,0.14,1.02,-0.06,6.47,11.23,-13.67
9800,0.15,1.01,-0.06,6.16,6.10,-10.13
9820,0.15,1.00,-0.07,5.43,2.81,-6.59
9840,0.17,1.00,-0.08,2.87,-1.71,-3.05
9860,0.18,1.00,-0.09,1.10,-1.59,-2.50
9880,0.17,1.00,-0.09,0.18,-1.22,-3.17
9900,0.16,1.01,-0.07,-0.43,-0.98,-2.32
9920,0.17,1.00,-0.07,0.31,-0.24,-1.10
9940,0.17,1.00,-0.08,0.61,0.24,-0.43
9960,0.17,1.00,-0.09,0.49,0.79,-0.67
9980,0.18,1.00,-0.09,-0.31,0.61,-0.55
10000,0.17,1.00,-0.09,-1.46,0.98,-0.73
10020,0.17,1.00,-0.08,-2.26,0.73,-0.43
10040,0.17,1.00,-0.08,-1.10,0.73,-0.12
10060,0.17,1.00,-0.08,-0.49,0.67,0.24
10080,0.17,1.00,-0.08,0.12,0.79,0.49
10100,0.17,1.00,-0.09,-0.06,1.34,0.55
10120,0.17,1.00,-0.09,-0.18,1.46,0.73
10140,0.18,1.00,-0.09,-1.16,1.77,0.49
10160,0.18,1.00,-0.09,-1.34,1.53,0.67
10180,0.17,1.00,-0.09,-1.95,1.28,0.92
10200,0.16,1.00,-0.09,-3.05,-15.50,2.08
10220,0.17,1.00,-0.09,-5.00,-1.53,2.50
10240,0.16,1.00,-0.09,-6.65,-2.75,3.48
10260,0.17,1.01,-0.07,-9.89,-4.09,5.74
10280,0.18,1.01,-0.07,-10.62,-4.27,8.61
10300,0.17,1.02,-0.07,-11.60,-2.93,10.44
10320,0.18,1.03,-0.05,-12.39,-2.62,12.94
10340,0.17,1.07,-0.08,-10.31,-1.46,18.68
10360,0.17,1.08,-0.08,-9.34,-2.93,24.05
10380,0.19,1.07,-0.10,-8.00,-5.07,29.05
10400,0.24,1.12,-0.07,-5.92,-11.84,37.48
10420,0.25,1.11,-0.11,-7.14,-8.30,41.93
10440,0.24,1.12,-0.13,-12.15,-6.65,45.59
10460,0.25,1.11,-0.15,-21.61,-7.81,52.37
10480,0.28,1.03,-0.06,-26.67,-11.29,56.58
10500,0.29,1.00,-0.03,-30.09,-9.34,58.35
10520,0.32,0.97,0.01,-30.27,-9.46,61.22
10540,0.38,0.89,0.07,-29.48,-7.75,62.19
10560,0.42,0.84,0.03,-28.99,-4.76,59.20
10580,0.44,0.84,0.03,-30.03,-5.80,51.94
10600,0.47,0.79,0.03,-30.70,-4.03,46.75
10620,0.50,0.78,0.11,-28.99,-5.00,41.56
10640,0.51,0.77,0.13,-26.00,-4.33,31.13
10660,0.54,0.75,0.15,-19.47,-3.11,24.72
10680,0.56,0.71,0.12,-15.99,-0.67,17.03
10700,0.60,0.65,0.12,-12.02,1.65,6.77
10720,0.61,0.55,0.23,-0.61,5.25,-13.67
10740,0.58,0.61,0.25,10.62,9.40,-30.94
10760,0.53,0.70,0.28,23.44,11.41,-45.78
10780,0.42,0.92,0.10,37.05,9.16,-56.34
10800,0.42,0.93,-0.00,39.92,5.49,-55.11
10820,0.44,0.88,-0.07,37.11,7.32,-54.87
10840,0.48,0.62,0.03,33.45,12.94,-68.97
10860,0.36,0.67,-0.05,31.25,19.35,-83.92
10880,0.18,1.02,-0.09,22.40,14.83,-91.74
10900,0.13,1.54,-0.04,14.95,1.59,-74.46
10920,0.27,1.21,0.09,23.38,-3.42,-45.90
10940,0.48,0.73,0.02,29.42,10.62,-40.59
10960,0.70,0.65,-0.20,28.69,64.27,-87.52
10980,-0.60,1.76,0.30,24.96,25.51,-60.85
11000,0.28,0.97,-0.12,5.00,-10.99,2.38
11020,0.24,0.94,-0.13,-2.38,0.00,-3.11
11040,0.20,1.01,-0.03,3.60,5.19,-7.93
11060,0.19,1.00,-0.09,4.21,11.35,-6.59
11080,0.20,1.00,-0.07,3.72,4.94,-9.03
11100,0.17,1.00,-0.09,5.62,4.46,-9.34
11120,0.16,1.00,-0.10,5.25,0.24,-9.83
11140,0.17,1.00,-0.11,2.32,-1.65,-8.36
11160,0.17,1.00,-0.09,-1.77,-2.26,-7.14
11180,0.17,1.00,-0.08,-2.14,-2.44,-6.41
11200,0.17,1.00,-0.08,-1.95,-2.08,-5.31
11220,0.16,1.00,-0.08,-2.69,-1.59,-3.60
11240,0.17,1.00,-0.08,-1.89,-1.53,-2.50
11260,0.17,1.00,-0.08,-1.28,-1.16,-1.71
11280,0.17,1.00,-0.08,-1.10,-0.55,-0.79
11300,0.17,1.00,-0.08,-0.73,-0.12,-0.24
11320,0.17,1.00,-0.08,-0.31,0.49,0.31
11340,0.17,1.00,-0.08,0.37,0.98,0.73
11360,0.17,1.00,-0.09,0.79,1.46,0.67
11380,0.17,1.00,-0.09,0.73,1.83,0.92
11400,0.17,1.00,-0.09,0.37,1.83,0.98
11420,0.18,1.00,-0.09,0.06,2.32,0.98
11440,0.17,1.00,-0.09,-0.31,2.38,0.79
11460,0.17,1.00,-0.09,-0.92,2.32,1.59
11480,0.16,1.00,-0.09,-3.23,0.67,2.50
11500,0.16,1.00,-0.09,-5.13,-0.92,3.72
11520,0.17,1.00,-0.10,-8.30,-3.23,5.49
11540,0.15,1.02,-0.07,-12.57,-4.21,6.71
11560,0.17,1.01,-0.08,-14.77,-5.86,10.44
11580,0.15,1.04,-0.05,-17.21,-5.92,13.43
11600,0.16,1.11,-0.05,-15.99,-6.04,20.81
11620,0.18,1.10,-0.05,-10.62,-9.64,27.89
11640,0.18,1.12,-0.08,-6.47,-9.89,33.63
11660,0.23,1.14,-0.10,-4.46,-10.80,42.36
11680,0.25,1.16,-0.13,-8.18,-6.77,46.39
11700,0.26,1.09,-0.15,-11.54,-7.45,52.49
11720,0.26,1.07,-0.13,-21.18,-10.19,56.58
11740,0.29,1.02,-0.07,-25.70,-13.18,60.00
11760,0.29,1.01,-0.02,-30.33,-14.22,61.89
11780,0.33,0.98,-0.01,-34.42,-12.51,65.92
11800,0.39,0.88,0.03,-35.52,-11.60,67.14
11820,0.44,0.80,0.02,-37.23,-8.48,64.03
11840,0.47,0.74,0.05,-37.84,-7.20,52.86
11860,0.51,0.72,0.10,-34.36,-5.92,44.01
11880,0.53,0.70,0.14,-30.03,-5.92,35.03
11900,0.53,0.73,0.18,-23.50,-4.33,25.27
11920,0.56,0.68,0.19,-13.67,-1.22,11.90
11940,0.60,0.64,0.15,-7.87,1.28,0.92
11960,0.58,0.66,0.18,0.06,3.66,-12.21
11980,0.53,0.74,0.23,14.10,5.92,-30.76
12000,0.51,0.78,0.23,23.93,4.88,-39.06
12020,0.48,0.81,0.15,31.37,6.16,-45.41
12040,0.46,0.81,-0.02,32.53,8.12,-51.70
12060,0.43,0.86,-0.07,29.72,10.93,-57.25
12080,0.42,0.77,-0.02,26.55,9.64,-61.46
12100,0.30,0.96,-0.02,21.12,7.51,-66.71
12120,0.30,1.08,-0.05,16.30,4.03,-64.39
12140,0.30,1.04,0.01,13.92,2.26,-58.90
12160,0.33,0.81,0.07,13.98,8.36,-60.67
12180,0.35,0.66,0.09,18.13,18.80,-73.18
12200,0.28,1.14,-0.00,21.12,24.29,-85.27
12220,-0.09,1.71,-0.52,23.13,28.56,-53.65
12240,0.19,1.08,-0.07,10.01,-5.25,-11.35
12260,0.29,0.97,-0.06,0.79,4.03,-9.40
12280,0.21,1.00,-0.02,3.60,14.22,-17.88
12300,0.11,1.04,-0.03,11.35,18.07,-17.52
12320,0.11,1.04,-0.04,9.58,9.77,-9.09
12340,0.18,1.00,-0.07,4.76,2.93,-1.71
12360,0.20,0.99,-0.08,2.26,-0.55,-0.98
12380,0.20,0.99,-0.07,1.34,-1.28,-2.75
12400,0.20,0.99,-0.07,0.55,-0.49,-4.09
12420,0.18,1.00,-0.06,-0.79,-0.43,-5.92
12440,0.17,1.01,-0.05,-0.61,0.43,-5.43
12460,0.18,1.00,-0.05,-0.73,-0.24,-3.85
12480,0.18,1.00,-0.06,-0.85,-0.12,-2.44
12500,0.18,1.00,-0.06,-1.16,-0.12,-1.89
12520,0.18,1.00,-0.06,-1.16,-0.24,-2.14
12540,0.18,1.00,-0.06,-2.01,0.24,-1.71
12560,0.18,1.00,-0.06,-1.89,0.37,-1.46
12580,0.18,1.00,-0.05,-1.28,0.67,-0.98
12600,0.18,1.00,-0.05,-0.12,0.67,-0.49
12620,0.18,1.00,-0.06,0.55,1.22,-0.18
12640,0.18,1.00,-0.06,1.22,1.65,0.24
12660,0.18,1.00,-0.06,1.46,2.08,0.37
12680,0.18,1.00,-0.06,1.53,2.08,0.55
12700,0.18,1.00,-0.06,2.01,2.20,0.67
12720,0.18,1.00,-0.07,2.20,2.69,0.67
12740,0.18,1.00,-0.07,1.77,2.75,0.61
12760,0.18,1.00,-0.07,1.71,2.81,0.37
12780,0.18,1.00,-0.08,1.34,3.11,0.24
12800,0.18,1.00,-0.07,0.67,2.93,0.37
12820,0.17,1.00,-0.07,0.06,2.81,0.85
12840,0.17,1.00,-0.08,-0.55,1.95,1.83
12860,0.18,1.00,-0.07,-1.46,1.46,2.56
12880,0.15,1.01,-0.08,-3.30,0.73,4.09
12900,0.16,1.01,-0.07,-5.98,-0.79,6.90
12920,0.18,1.01,-0.07,-7.87,-0.92,10.07
12940,0.17,1.03,-0.07,-9.03,-0.43,12.08
12960,0.16,1.07,-0.06,-11.60,-0.49,16.72
12980,0.17,1.10,-0.06,-10.62,-5.00,27.65
13000,0.18,1.11,-0.12,-7.39,-6.47,32.59
13020,0.22,1.15,-0.09,-7.93,-10.93,37.23
13040,0.24,1.15,-0.11,-11.35,-10.68,45.59
13060,0.26,1.11,-0.12,-17.82,-8.48,49.19
13080,0.26,1.08,-0.12,-23.38,-8.61,52.98
13100,0.24,1.07,-0.08,-28.38,-11.96,59.81
13120,0.29,1.02,-0.01,-34.61,-12.88,63.78
13140,0.34,0.93,0.02,-37.41,-12.08,67.14
13160,0.37,0.88,0.03,-37.90,-9.52,66.71
13180,0.45,0.81,0.08,-36.93,-6.59,60.91
13200,0.47,0.75,0.10,-34.79,-5.43,54.14
13220,0.50,0.73,0.13,-30.40,-4.76,46.88
13240,0.53,0.72,0.15,-21.85,-3.17,33.26
13260,0.55,0.71,0.18,-14.22,-2.20,23.62
13280,0.55,0.72,0.18,-6.96,-0.92,13.98
13300,0.57,0.69,0.18,2.62,1.83,1.04
13320,0.57,0.66,0.18,8.97,4.88,-10.01
13340,0.55,0.68,0.16,16.48,7.75,-22.89
13360,0.50,0.76,0.14,27.59,10.07,-39.73
13380,0.47,0.80,0.10,32.78,8.97,-46.45
13400,0.43,0.86,0.00,33.57,9.70,-49.93
13420,0.45,0.79,-0.07,29.48,10.62,-54.44
13440,0.41,0.86,-0.04,26.92,12.51,-62.99
13460,0.37,0.78,0.02,27.22,11.60,-68.05
13480,0.25,0.90,-0.00,22.71,8.12,-73.12
13500,0.26,1.08,-0.09,16.85,9.03,-72.88
13520,0.27,1.10,-0.04,16.85,7.02,-68.54
13540,0.41,0.92,0.02,20.32,18.19,-73.30
13560,0.61,1.15,-0.60,26.98,57.86,-99.55
13580,-0.79,1.92,0.24,41.87,48.10,-80.93
13600,0.31,0.99,-0.08,0.85,-29.24,3.85
13620,0.23,0.96,-0.08,-5.00,-2.44,0.00
13640,0.20,1.01,-0.05,0.12,-0.85,-6.71
13660,0.18,1.00,-0.08,1.10,8.00,-3.78
13680,0.19,1.00,-0.06,2.87,1.89,-5.00
13700,0.18,1.00,-0.07,3.11,3.05,-4.58
13720,0.19,0.99,-0.09,5.13,0.18,-4.52
13740,0.18,1.00,-0.10,3.05,0.24,-5.07
13760,0.18,1.00,-0.09,0.24,-0.73,-5.55
13780,0.17,1.00,-0.07,-0.79,-1.28,-5.49
13800,0.17,1.00,-0.08,-0.67,-1.46,-3.42
13820,0.18,1.00,-0.08,-0.73,-1.10,-2.44
13840,0.18,1.00,-0.08,-0.55,-0.49,-2.20
13860,0.18,1.00,-0.09,-0.49,-0.37,-1.83
13880,0.18,1.00,-0.09,-1.59,-0.24,-1.65
13900,0.17,1.00,-0.08,-1.95,0.18,-1.40
13920,0.18,1.00,-0.08,-1.83,0.24,-0.55
13940,0.18,1.00,-0.08,-1.04,0.12,-0.43
13960,0.18,1.00,-0.08,-0.49,0.49,-0.06
13980,0.18,1.00,-0.08,0.12,0.79,0.18
14000,0.18,1.00,-0.08,0.49,1.53,0.37
14020,0.18,1.00,-0.09,0.49,1.77,0.31
14040,0.18,1.00,-0.08,0.43,1.89,0.67
14060,0.18,1.00,-0.09,-0.06,2.08,0.73
14080,0.18,1.00,-0.09,-0.06,2.14,0.61
14100,0.18,1.00,-0.09,-0.12,2.38,0.55
14120,0.18,1.00,-0.09,-0.12,2.26,0.73
14140,0.17,1.00,-0.08,-0.37,2.38,1.16
14160,0.16,1.00,-0.09,-0.73,1.71,2.14
14180,0.15,1.00,-0.09,-4.03,-0.73,5.74
14200,0.15,1.01,-0.09,-8.18,-2.50,8.91
14220,0.16,1.02,-0.08,-13.37,-4.46,12.33
14240,0.17,1.05,-0.07,-15.63,-4.52,17.52
14260,0.15,1.13,-0.08,-15.69,-6.04,23.50
14280,0.15,1.16,-0.10,-12.76,-10.31,30.82
14300,0.21,1.15,-0.11,-7.14,-15.38,41.63
14320,0.25,1.16,-0.11,-6.77,-13.24,45.59
14340,0.25,1.14,-0.13,-11.90,-11.41,50.90
14360,0.23,1.14,-0.13,-16.42,-11.84,60.12
14380,0.27,1.06,-0.13,-26.18,-11.78,64.70
14400,0.30,0.99,-0.07,-32.84,-13.92,67.38
14420,0.35,0.90,-0.01,-37.78,-12.76,68.18
14440,0.40,0.80,0.07,-38.64,-10.93,66.28
14460,0.44,0.78,0.07,-36.68,-6.16,60.55
14480,0.46,0.79,0.10,-33.20,-6.90,53.53
14500,0.50,0.74,0.10,-28.14,-4.27,43.40
14520,0.53,0.70,0.13,-23.01,-3.54,34.85
14540,0.54,0.71,0.14,-18.13,-1.89,25.39
14560,0.56,0.70,0.13,-8.73,0.55,10.68
14580,0.57,0.71,0.13,-4.15,1.95,1.65
14600,0.57,0.67,0.19,2.38,3.54,-8.36
14620,0.53,0.70,0.19,14.71,8.73,-26.61
14640,0.50,0.80,0.19,23.50,8.91,-35.95
14660,0.47,0.86,0.11,29.36,9.46,-40.34
14680,0.47,0.88,-0.04,28.99,11.29,-44.98
14700,0.43,0.91,-0.02,29.17,10.31,-46.33
14720,0.41,0.93,-0.01,28.75,9.95,-47.67
14740,0.41,0.86,0.01,28.32,8.79,-51.15
14760,0.39,0.76,-0.07,23.19,9.16,-54.75
14780,0.36,0.90,-0.11,15.20,12.76,-62.13
14800,0.29,1.04,-0.02,14.95,10.62,-66.04
14820,0.35,0.83,0.11,22.16,13.31,-68.85
14840,0.39,0.74,0.06,29.30,24.17,-79.16
14860,0.45,1.27,-0.59,25.27,49.80,-92.16
14880,-0.30,1.61,0.27,4.46,-1.59,-36.74
14900,0.32,0.92,-0.16,0.18,-0.55,1.16
14920,0.25,0.94,-0.12,-3.60,6.84,-5.43
14940,0.21,1.02,-0.03,0.31,7.81,-14.83
14960,0.17,1.01,-0.07,3.17,14.71,-13.24
14980,0.16,1.02,-0.07,4.58,8.67,-11.78
15000,0.17,1.00,-0.09,3.91,4.15,-6.77
15020,0.18,1.00,-0.09,3.66,0.61,-5.49
15040,0.18,1.00,-0.10,1.40,0.12,-4.82
15060,0.18,1.00,-0.08,-1.53,-1.22,-5.13
15080,0.18,1.00,-0.07,-1.53,-1.34,-4.58
15100,0.17,1.00,-0.08,-0.24,-0.61,-3.78
15120,0.17,1.00,-0.08,0.24,-0.24,-2.14
15140,0.18,1.00,-0.09,0.73,-0.24,-1.83
15160,0.18,1.00,-0.09,0.55,-0.37,-1.89
15180,0.18,0.99,-0.10,-0.67,-0.49,-2.38
15200,0.18,1.00,-0.09,-1.89,-0.73,-2.26
15220,0.17,1.00,-0.09,-2.50,-1.10,-1.95
15240,0.17,1.00,-0.08,-2.50,-1.34,-1.28
15260,0.17,1.00,-0.08,-1.40,-1.22,-1.10
15280,0.18,1.00,-0.09,-0.92,-0.55,-0.67
15300,0.18,1.00,-0.09,-0.79,-0.06,-0.37
15320,0.18,1.00,-0.09,-1.40,0.24,0.00
15340,0.18,1.00,-0.09,-1.65,0.43,0.00
15360,0.18,1.00,-0.08,-1.59,0.61,-0.06
15380,0.18,1.00,-0.09,-1.59,0.73,0.18
15400,0.18,1.00,-0.09,-1.71,0.67,0.12
15420,0.18,1.00,-0.08,-2.01,0.73,0.00
15440,0.17,1.00,-0.09,-1.77,0.98,0.49
15460,0.17,1.00,-0.08,-2.01,1.16,1.28
15480,0.15,1.00,-0.08,-2.26,0.73,2.20
15500,0.15,1.00,-0.08,-5.31,-1.28,5.62
15520,0.14,1.02,-0.09,-10.13,-4.21,9.95
15540,0.17,1.02,-0.06,-14.89,-6.35,14.65
15560,0.17,1.04,-0.06,-14.53,-3.54,19.17
15580,0.15,1.11,-0.07,-12.15,-6.59,26.49
15600,0.13,1.13,-0.11,-8.79,-10.01,35.64
15620,0.17,1.21,-0.12,-7.57,-16.85,49.26
15640,0.27,1.13,-0.12,-9.64,-10.31,53.41
15660,0.27,1.11,-0.17,-14.04,-8.42,57.68
15680,0.27,1.07,-0.14,-21.00,-8.91,76.90
15700,0.30,0.98,-0.06,-28.56,-12.02,64.58
15720,0.34,0.94,-0.03,-32.53,-12.70,64.03
15740,0.34,0.93,0.01,-34.91,-11.47,62.68
15760,0.40,0.86,0.03,-36.38,-9.83,62.62
15780,0.45,0.81,0.05,-35.83,-8.36,58.96
15800,0.47,0.77,0.07,-35.40,-8.36,52.00
15820,0.52,0.74,0.11,-31.43,-6.47,40.89
15840,0.53,0.71,0.14,-26.92,-4.76,32.84
15860,0.55,0.72,0.16,-20.63,-3.23,22.89
15880,0.57,0.68,0.19,-8.85,-0.61,8.12
15900,0.59,0.60,0.23,-1.34,1.71,-3.05
15920,0.58,0.60,0.20,7.08,6.59,-18.55
15940,0.55,0.67,0.21,22.16,10.62,-39.61
15960,0.48,0.80,0.19,33.39,10.74,-48.46
15980,0.44,0.84,0.10,39.18,11.35,-52.73
16000,0.44,0.81,-0.01,38.51,12.94,-56.76
16020,0.41,0.85,-0.14,31.68,14.59,-62.87
16040,0.37,0.95,-0.11,26.25,12.63,-67.26
16060,0.30,1.01,0.01,23.99,9.34,-65.06
16080,0.30,0.86,-0.00,27.10,9.64,-65.55
16100,0.29,0.93,-0.06,23.99,12.45,-66.28
16120,0.33,0.98,-0.09,20.63,14.83,-69.15
16140,0.56,1.02,-0.23,15.20,38.64,-84.53
16160,-0.30,1.87,-0.40,23.01,68.79,-89.90
16180,-0.17,1.44,0.24,14.89,-11.23,-28.87
16200,0.21,0.98,-0.07,-7.81,3.60,3.30
16220,0.27,0.97,-0.04,-0.73,-4.09,-2.69
16240,0.20,1.01,-0.05,5.19,10.31,-5.25
16260,0.20,1.00,-0.09,8.30,6.96,-5.92
16280,0.18,1.00,-0.10,6.71,6.10,-5.68
16300,0.18,0.99,-0.10,4.82,2.99,-5.43
16320,0.18,1.00,-0.09,2.44,0.00,-5.31
16340,0.18,1.00,-0.10,1.28,-0.06,-5.13
16360,0.18,1.00,-0.09,-1.16,-1.10,-4.70
16380,0.18,1.00,-0.09,-1.71,-0.79,-3.72
16400,0.18,1.00,-0.08,-1.71,-1.46,-2.87
16420,0.18,1.00,-0.08,-1.34,-1.10,-2.26
16440,0.18,1.00,-0.09,-0.73,-0.61,-2.56
16460,0.18,1.00,-0.09,-0.85,-0.55,-2.56
16480,0.18,1.00,-0.09,-1.77,-0.37,-2.56
16500,0.18,1.00,-0.09,-2.50,-0.79,-2.14
16520,0.18,1.00,-0.08,-2.38,-1.28,-1.83
16540,0.18,1.00,-0.08,-1.77,-1.22,-1.65
16560,0.18,1.00,-0.09,-1.46,-0.85,-1.16
16580,0.18,1.00,-0.09,-1.10,-0.24,-1.10
16600,0.18,1.00,-0.09,-1.10,0.24,-0.73
16620,0.18,1.00,-0.09,-1.16,0.37,-0.37
16640,0.18,1.00,-0.09,-1.22,0.85,0.06
16660,0.18,1.00,-0.09,-1.28,0.98,0.12
16680,0.18,1.00,-0.08,-1.04,1.34,0.12
16700,0.18,1.00,-0.08,-0.85,1.59,0.24
16720,0.18,1.00,-0.09,-0.73,1.59,0.49
16740,0.18,1.00,-0.09,-0.98,1.59,0.55
16760,0.18,1.00,-0.08,-1.46,1.83,0.73
16780,0.16,1.00,-0.08,-1.65,1.46,1.59
16800,0.17,1.00,-0.09,-3.17,0.31,2.62
16820,0.16,1.00,-0.09,-6.65,-1.59,5.00
16840,0.16,1.00,-0.09,-8.30,-1.71,6.23
16860,0.18,1.01,-0.06,-11.35,-3.36,9.16
16880,0.15,1.03,-0.06,-11.35,-4.70,14.04
16900,0.14,1.09,-0.09,-13.92,-5.49,18.92
16920,0.20,1.05,-0.09,-12.39,-7.45,24.60
16940,0.16,1.10,-0.12,-10.50,-8.00,28.63
16960,0.21,1.17,-0.09,-9.22,-13.06,37.84
16980,0.26,1.15,-0.08,-8.61,-14.47,44.56
17000,0.25,1.14,-0.14,-13.55,-10.99,50.17
17020,0.27,1.07,-0.12,-21.97,-9.58,56.03
17040,0.29,1.00,-0.06,-26.79,-10.25,57.80
17060,0.30,0.99,-0.00,-29.66,-9.83,57.92
17080,0.37,0.87,0.06,-28.50,-9.95,58.47
17100,0.40,0.84,0.02,-28.26,-6.90,55.54
17120,0.42,0.82,0.01,-28.14,-5.37,50.78
17140,0.45,0.81,0.04,-26.73,-4.94,41.87
17160,0.47,0.80,0.09,-24.90,-6.16,36.50
17180,0.49,0.80,0.09,-22.77,-4.52,30.76
17200,0.50,0.78,0.13,-16.24,-3.48,21.73
17220,0.53,0.73,0.14,-11.78,-0.98,14.04
17240,0.59,0.63,0.14,-7.20,1.16,3.48
17260,0.59,0.55,0.19,2.87,7.57,-21.30
17280,0.49,0.71,0.21,10.93,10.68,-39.18
17300,0.45,0.84,0.19,20.75,7.93,-47.85
17320,0.43,0.87,0.07,28.32,7.45,-51.51
17340,0.49,0.71,-0.08,25.02,10.44,-57.37
17360,0.46,0.68,-0.10,18.37,14.59,-69.89
17380,0.28,0.97,-0.02,17.58,18.86,-84.96
17400,0.14,1.26,0.14,20.63,8.48,-71.66
17420,0.26,1.07,0.16,31.62,4.27,-55.05
17440,0.37,0.83,0.08,39.98,12.45,-52.49
17460,0.66,0.99,-0.15,42.60,41.81,-85.94
17480,-0.63,1.91,-0.83,62.26,97.60,-106.69
17500,-0.18,1.27,0.15,38.64,-1.83,-26.67
17520,0.19,0.98,-0.14,-5.68,8.42,4.27
17540,0.22,1.00,-0.08,-5.86,-1.46,-0.37
17560,0.20,1.00,-0.04,-3.85,6.90,-1.34
17580,0.19,1.01,-0.06,2.99,3.85,-4.52
17600,0.19,0.99,-0.10,4.39,4.21,-4.09
17620,0.18,0.99,-0.11,2.75,0.49,-5.31
17640,0.19,0.99,-0.11,1.34,-1.16,-5.49
17660,0.19,0.99,-0.11,-0.67,-2.01,-5.92
17680,0.18,1.00,-0.10,-2.38,-2.56,-6.35
17700,0.18,1.00,-0.09,-2.75,-3.60,-5.55
17720,0.18,1.00,-0.09,-2.75,-2.87,-4.52
17740,0.17,1.00,-0.09,-1.83,-2.14,-3.72
17760,0.18,1.00,-0.09,-1.10,-1.95,-2.56
17780,0.18,1.00,-0.09,-0.73,-1.59,-2.14
17800,0.18,1.00,-0.10,-0.85,-1.28,-1.65
17820,0.18,1.00,-0.10,-1.59,-0.73,-1.16
17840,0.18,1.00,-0.08,-2.01,-0.12,-0.43
17860,0.18,1.00,-0.09,-1.04,-0.12,-0.06
17880,0.18,1.00,-0.09,-0.18,0.18,-0.06
17900,0.18,1.00,-0.10,-0.18,0.61,0.24
17920,0.18,1.00,-0.10,-0.18,0.79,0.12
17940,0.18,1.00,-0.09,-0.31,0.85,0.31
17960,0.18,1.00,-0.09,-0.18,0.85,0.55
17980,0.18,1.00,-0.09,-0.37,0.98,1.10
18000,0.19,1.00,-0.10,-0.12,1.10,1.04
18020,0.18,1.00,-0.10,-0.92,1.77,0.98
18040,0.18,1.00,-0.10,-1.59,1.83,1.04
18060,0.16,1.00,-0.10,-2.99,1.22,2.14
18080,0.18,1.00,-0.10,-5.55,-0.73,4.21
18100,0.18,1.00,-0.11,-7.57,-2.26,5.68
18120,0.18,1.01,-0.08,-10.74,-3.23,6.84
18140,0.15,1.03,-0.07,-13.49,-6.41,12.39
18160,0.15,1.04,-0.08,-15.38,-6.23,15.69
18180,0.17,1.07,-0.10,-14.89,-8.91,19.84
18200,0.17,1.11,-0.10,-14.22,-11.78,25.33
18220,0.22,1.17,-0.12,-10.13,-18.01,36.62
18240,0.24,1.12,-0.09,-7.93,-16.30,41.99
18260,0.27,1.15,-0.12,-11.23,-13.12,46.57
18280,0.26,1.11,-0.10,-19.29,-10.74,54.44
18300,0.25,1.08,-0.11,-23.32,-10.86,59.27
18320,0.28,1.04,-0.09,-28.63,-12.82,62.99
18340,0.33,0.95,0.00,-34.79,-14.65,67.08
18360,0.38,0.88,0.00,-36.87,-12.82,67.14
18380,0.40,0.84,0.04,-37.35,-10.99,65.31
18400,0.47,0.76,0.08,-35.58,-9.40,57.43
18420,0.51,0.71,0.10,-33.33,-8.54,49.38
18440,0.52,0.72,0.12,-29.66,-6.35,40.34
18460,0.55,0.70,0.17,-20.94,-4.33,25.57
18480,0.57,0.67,0.17,-14.34,-2.75,15.63
18500,0.61,0.60,0.19,-7.87,-0.06,3.23
18520,0.61,0.54,0.22,4.39,6.71,-21.24
18540,0.56,0.62,0.26,16.60,8.97,-36.99
18560,0.48,0.74,0.20,29.24,11.23,-50.05
18580,0.44,0.89,0.11,38.76,7.93,-56.21
18600,0.46,0.84,-0.09,33.45,9.52,-56.46
18620,0.46,0.75,-0.08,28.26,12.27,-63.90
18640,0.42,0.64,0.00,26.49,15.26,-76.42
18660,0.25,0.89,0.01,29.54,14.95,-90.39
18680,0.16,1.23,0.01,28.38,8.54,-86.43
18700,0.20,1.23,-0.01,28.44,3.60,-71.17
18720,0.49,1.00,-0.11,29.36,17.21,-63.96
18740,0.24,1.42,-0.75,28.87,53.22,-79.77
18760,-0.38,1.57,0.02,29.48,36.99,-66.41
18780,0.22,0.98,-0.12,-6.41,2.01,-0.49
18800,0.22,0.98,-0.03,-7.26,-1.04,-1.95
18820,0.22,1.01,-0.00,1.83,0.06,-5.25
18840,0.18,1.00,-0.08,8.67,8.61,-4.39
18860,0.19,1.00,-0.10,8.30,6.16,-4.88
18880,0.18,1.00,-0.09,5.86,5.55,-3.91
18900,0.19,1.00,-0.08,4.88,1.71,-3.42
18920,0.18,1.00,-0.10,4.09,1.22,-3.54
18940,0.18,1.00,-0.10,1.77,-0.18,-3.72
18960,0.18,1.00,-0.08,0.43,-0.79,-3.42
18980,0.18,1.00,-0.09,1.04,-0.37,-2.87
19000,0.18,1.00,-0.09,0.79,-0.18,-2.38
19020,0.19,1.00,-0.09,0.98,-0.61,-2.69
19040,0.18,1.00,-0.10,1.53,-1.10,-3.36
19060,0.18,0.99,-0.11,0.61,-1.53,-4.21
19080,0.18,1.00,-0.10,-0.92,-1.77,-3.85
19100,0.17,1.00,-0.09,-1.40,-2.01,-2.99
19120,0.18,1.00,-0.09,-1.10,-2.08,-2.08
19140,0.18,1.00,-0.09,-0.61,-1.77,-1.59
19160,0.18,1.00,-0.09,-0.49,-0.79,-0.92
19180,0.18,1.00,-0.09,-0.49,-0.49,-0.55
19200,0.18,1.00,-0.09,-0.67,-0.06,0.00
19220,0.18,1.00,-0.09,-0.85,0.37,0.43
19240,0.18,1.00,-0.09,-0.85,0.67,0.55
19260,0.18,1.00,-0.09,-0.85,0.92,0.67
19280,0.18,1.00,-0.09,-0.55,1.65,1.10
19300,0.18,1.00,-0.09,-0.06,2.01,1.28
19320,0.18,1.00,-0.09,0.24,2.69,1.40
19340,0.18,1.00,-0.10,-0.18,3.54,1.65
19360,0.18,1.00,-0.10,-0.06,3.66,1.89
19380,0.18,1.00,-0.10,-0.67,4.03,2.08
19400,0.17,1.00,-0.09,-1.22,3.05,2.81
19420,0.15,1.00,-0.10,-3.60,1.65,4.76
19440,0.15,1.00,-0.11,-6.71,-0.67,8.24
19460,0.16,1.01,-0.10,-13.55,-4.09,12.15
19480,0.17,1.04,-0.08,-18.98,-6.96,15.87
19500,0.16,1.11,-0.11,-19.17,-7.93,19.47
19520,0.21,1.08,-0.06,-17.03,-13.61,25.88
19540,0.21,1.08,-0.10,-8.24,-13.31,31.13
19560,0.22,1.21,-0.10,-6.90,-14.22,35.34
19580,0.22,1.20,-0.08,-6.23,-13.79,43.46
19600,0.25,1.17,-0.09,-12.70,-8.85,54.69
19620,0.27,1.08,-0.11,-16.48,-7.81,60.67
19640,0.28,1.02,-0.07,-21.42,-7.63,63.54
19660,0.32,0.94,-0.04,-27.65,-6.90,64.03
19680,0.37,0.85,-0.02,-29.66,-7.26,64.76
19700,0.42,0.77,-0.02,-30.58,-6.04,62.32
19720,0.44,0.78,0.00,-30.21,-5.13,52.00
19740,0.49,0.77,0.05,-28.08,-6.90,46.08
19760,0.47,0.83,0.08,-26.06,-6.84,39.37
19780,0.50,0.81,0.11,-21.00,-5.80,33.02
19800,0.55,0.74,0.12,-16.78,-4.33,26.92
19820,0.57,0.69,0.12,-12.02,-1.65,17.70
19840,0.62,0.59,0.13,-7.63,0.67,-2.62
19860,0.59,0.53,0.20,4.03,6.47,-21.55
19880,0.54,0.65,0.24,13.55,9.70,-38.88
19900,0.47,0.77,0.16,23.93,10.44,-49.68
19920,0.46,0.86,0.05,34.36,7.39,-54.87
19940,0.42,0.90,-0.06,33.14,10.25,-57.80
19960,0.44,0.79,-0.07,31.25,7.81,-60.42
19980,0.40,0.70,-0.10,22.52,14.16,-76.11
20000,0.34,0.72,-0.04,16.54,13.85,-86.85
20020,0.14,1.10,-0.01,14.83,14.83,-93.51
20040,0.19,1.27,0.12,26.00,9.22,-78.31
20060,0.47,0.99,-0.02,33.63,19.29,-69.46
20080,-0.04,1.80,-1.14,35.46,66.89,-86.79
20100,-0.14,1.34,0.18,13.31,-8.30,-32.41
20120,0.24,0.95,-0.14,-8.97,5.13,3.48
20140,0.22,0.97,-0.05,-7.93,-3.17,-1.77
20160,0.21,1.01,-0.02,3.78,6.96,-5.68
20180,0.18,1.00,-0.09,7.45,4.70,-4.94
20200,0.19,1.00,-0.10,7.63,2.75,-3.91
20220,0.18,0.99,-0.11,5.25,0.49,-3.54
20240,0.19,1.00,-0.09,4.46,-1.04,-4.03
20260,0.18,1.00,-0.11,3.60,0.00,-3.42
20280,0.18,1.00,-0.10,1.34,-1.65,-3.30
20300,0.18,1.00,-0.09,0.92,-0.73,-2.26
20320,0.18,1.00,-0.10,0.79,-0.79,-1.59
20340,0.18,1.00,-0.10,-0.12,-0.92,-1.53
20360,0.18,1.00,-0.10,-0.43,-0.92,-2.20
20380,0.18,0.99,-0.11,-0.85,-1.40,-2.56
20400,0.18,0.99,-0.11,-2.14,-1.71,-2.75
20420,0.18,1.00,-0.10,-3.48,-1.22,-2.81
20440,0.18,1.00,-0.09,-3.42,-1.22,-2.62
20460,0.17,1.00,-0.08,-2.87,-1.22,-2.62
20480,0.18,1.00,-0.09,-1.46,-0.79,-1.89
20500,0.18,1.00,-0.09,-0.67,-0.49,-1.46
20520,0.17,1.00,-0.09,0.12,-0.12,-0.73
20540,0.17,1.00,-0.10,0.61,0.37,0.24
20560,0.18,1.00,-0.10,0.67,0.85,0.55
20580,0.18,1.00,-0.10,0.24,1.28,0.73
20600,0.18,1.00,-0.10,0.06,1.59,1.16
20620,0.18,1.00,-0.10,-0.18,2.14,1.22
20640,0.18,1.00,-0.10,-0.31,2.44,1.34
20660,0.18,1.00,-0.10,-0.43,3.05,1.53
20680,0.18,1.00,-0.11,-1.16,3.17,1.89
20700,0.16,0.99,-0.10,-2.44,2.81,2.08
20720,0.17,1.00,-0.10,-4.46,1.04,3.72
20740,0.16,1.00,-0.10,-8.00,-0.31,4.64
20760,0.17,1.01,-0.09,-10.80,-2.38,7.02
20780,0.15,1.03,-0.07,-13.24,-3.97,10.50
20800,0.16,1.04,-0.07,-12.88,-5.07,15.01
20820,0.16,1.08,-0.09,-12.15,-8.00,20.20
20840,0.18,1.08,-0.09,-9.46,-10.93,24.66
20860,0.17,1.19,-0.16,-5.37,-15.56,34.48
20880,0.22,1.16,-0.10,-4.58,-18.31,40.34
20900,0.26,1.11,-0.12,-5.98,-15.14,45.17
20920,0.26,1.09,-0.14,-15.99,-10.68,50.66
20940,0.29,1.07,-0.14,-22.28,-11.05,54.26
20960,0.29,1.01,-0.09,-27.28,-12.39,56.76
20980,0.29,1.00,-0.00,-31.86,-14.28,58.84
21000,0.33,0.99,0.01,-32.90,-12.63,60.79
21020,0.39,0.91,0.07,-30.94,-13.61,64.27
21040,0.39,0.89,0.06,-29.91,-6.96,62.87
21060,0.46,0.81,0.05,-28.87,-6.53,58.35
21080,0.50,0.75,0.06,-27.40,-5.80,53.16
21100,0.51,0.73,0.08,-23.86,-4.33,41.02
21120,0.55,0.71,0.11,-16.30,-2.81,32.29
21140,0.57,0.69,0.13,-10.93,-2.50,23.13
21160,0.58,0.68,0.14,-5.19,-0.43,12.76
21180,0.59,0.64,0.18,2.20,3.23,-3.48
21200,0.58,0.66,0.16,8.18,6.59,-16.24
21220,0.58,0.65,0.16,15.99,8.97,-28.69
21240,0.48,0.77,0.06,24.48,13.37,-46.26
21260,0.46,0.93,-0.00,27.22,11.11,-49.32
21280,0.46,0.93,-0.04,25.70,9.28,-48.46
21300,0.53,0.70,0.03,23.56,9.77,-53.71
21320,0.52,0.39,0.03,23.19,17.94,-70.01
21340,0.39,0.57,-0.12,18.25,24.96,-88.50
21360,0.07,1.54,-0.01,17.46,17.58,-97.84
21380,0.17,1.38,0.11,21.55,1.59,-66.10
21400,0.32,1.02,0.06,29.24,3.66,-48.77
21420,0.55,0.68,0.01,30.82,26.31,-66.47
21440,0.18,1.22,-1.09,20.63,73.97,-101.56
21460,-0.83,1.93,0.30,18.37,52.43,-86.85
21480,0.26,1.07,-0.03,-3.17,4.76,10.13
21500,0.25,0.95,-0.04,-8.36,-5.19,1.83
21520,0.24,0.99,-0.05,3.05,-1.34,-6.53
21540,0.18,1.00,-0.10,5.86,13.18,-5.55
21560,0.19,1.01,-0.08,4.52,4.70,-6.35
21580,0.18,0.99,-0.10,5.07,6.04,-4.70
21600,0.18,0.99,-0.11,4.09,0.98,-5.31
21620,0.18,1.00,-0.11,1.46,-0.92,-5.62
21640,0.18,1.00,-0.10,-1.34,-2.38,-5.86
21660,0.18,1.00,-0.09,-1.95,-2.69,-5.55
21680,0.18,1.00,-0.09,-0.37,-1.65,-4.09
21700,0.18,1.00,-0.09,0.18,-1.53,-3.66
21720,0.18,1.00,-0.10,-0.37,-1.28,-3.42
21740,0.18,1.00,-0.10,-1.22,-2.14,-3.17
21760,0.18,1.00,-0.10,-2.14,-2.01,-2.99
21780,0.18,1.00,-0.10,-3.23,-1.83,-3.05
21800,0.17,1.00,-0.09,-2.87,-1.34,-3.23
21820,0.17,1.00,-0.08,-2.26,-1.28,-3.05
21840,0.17,1.00,-0.09,-1.77,-1.16,-2.20
21860,0.17,1.00,-0.09,-1.71,-0.79,-1.53
21880,0.18,1.00,-0.09,-1.59,-0.49,-1.40
21900,0.17,1.00,-0.09,-1.40,0.00,-1.46
21920,0.17,1.00,-0.09,-1.28,-0.12,-0.49
21940,0.17,1.00,-0.09,-1.10,0.37,-0.06
21960,0.18,1.00,-0.09,-0.61,0.61,0.37
21980,0.17,1.00,-0.09,-0.24,1.16,0.55
22000,0.17,1.00,-0.09,0.92,2.01,1.16
22020,0.17,1.00,-0.09,1.28,2.44,1.59
22040,0.18,1.00,-0.09,1.71,2.93,2.01
22060,0.18,1.00,-0.10,1.89,3.91,2.08
22080,0.18,1.00,-0.10,1.34,4.58,2.14
22100,0.18,1.00,-0.10,0.98,5.31,2.26
22120,0.17,1.00,-0.10,0.61,5.62,2.50
22140,0.17,1.00,-0.10,-0.24,5.49,3.78
22160,0.16,1.00,-0.10,-1.59,4.76,5.55
22180,0.16,1.00,-0.10,-4.58,2.38,8.06
22200,0.15,1.02,-0.11,-7.81,-0.24,10.86
22220,0.18,1.01,-0.08,-13.61,-4.09,14.71
22240,0.18,1.03,-0.11,-14.22,-5.43,17.33
22260,0.18,1.08,-0.09,-13.37,-8.97,23.86
22280,0.14,1.15,-0.10,-10.62,-11.78,29.79
22300,0.21,1.17,-0.14,-6.41,-14.77,40.59
22320,0.23,1.20,-0.10,-6.16,-14.47,48.22
22340,0.25,1.19,-0.15,-9.83,-12.57,57.56
22360,0.26,1.12,-0.19,-15.32,-11.35,67.26
22380,0.27,1.07,-0.16,-25.94,-14.22,72.02
22400,0.31,1.00,-0.09,-33.81,-16.05,75.20
22420,0.34,0.93,-0.02,-38.82,-16.85,75.62
22440,0.41,0.82,0.05,-41.08,-14.71,76.97
22460,0.47,0.73,0.07,-39.49,-11.54,71.84
22480,0.52,0.64,0.07,-38.45,-9.22,60.30
22500,0.58,0.59,0.09,-33.63,-4.82,40.59
22520,0.58,0.59,0.12,-27.10,-3.78,25.88
22540,0.58,0.62,0.14,-18.92,-3.78,11.90
22560,0.58,0.69,0.18,-7.26,-3.17,-4.15
22580,0.59,0.66,0.20,-0.73,-0.73,-15.63
22600,0.58,0.65,0.23,8.12,3.42,-28.69
22620,0.55,0.72,0.18,23.38,9.83,-48.40
22640,0.45,0.83,0.10,32.41,10.93,-55.73
22660,0.43,0.88,0.02,35.22,8.97,-57.19
22680,0.43,0.86,-0.08,30.58,10.80,-58.11
22700,0.40,0.98,-0.06,28.38,9.40,-60.06
22720,0.39,0.80,0.01,25.51,10.31,-60.73
22740,0.30,0.89,-0.02,23.68,10.99,-67.02
22760,0.28,1.04,-0.09,15.99,9.83,-66.16
22780,0.29,1.08,-0.06,13.31,8.30,-62.81
22800,0.34,0.96,-0.00,15.44,8.73,-76.97
22820,0.56,0.71,-0.06,21.00,34.00,-80.81
22840,-0.56,2.10,-1.04,27.83,79.47,-105.29
22860,-0.39,1.65,0.40,23.80,-7.75,-36.50
22880,0.28,0.92,-0.15,-3.48,6.16,4.76
22900,0.25,0.97,-0.06,3.54,-3.42,-4.88
22920,0.21,0.99,-0.08,5.49,9.46,-6.96
22940,0.18,1.01,-0.08,2.62,7.93,-10.50
22960,0.17,1.01,-0.08,2.81,6.04,-9.58
22980,0.16,1.00,-0.09,2.56,2.20,-8.12
23000,0.17,1.00,-0.10,2.87,-1.65,-6.77
23020,0.17,0.99,-0.11,0.06,-1.59,-5.31
23040,0.18,1.00,-0.09,-2.32,-2.32,-5.25
23060,0.17,1.00,-0.08,-2.56,-0.73,-4.33
23080,0.17,1.00,-0.08,-2.20,-1.40,-3.54
23100,0.17,1.00,-0.08,-1.34,-1.04,-2.69
23120,0.17,1.00,-0.09,0.24,-0.85,-2.20
23140,0.18,1.00,-0.10,0.37,-0.98,-2.26
23160,0.17,1.00,-0.10,-0.79,-0.79,-2.56
23180,0.17,1.00,-0.09,-1.59,-0.67,-2.99
23200,0.17,1.00,-0.09,-1.65,-1.22,-2.69
23220,0.17,1.00,-0.08,-1.10,-1.40,-2.08
23240,0.17,1.00,-0.08,-0.85,-1.34,-1.59
23260,0.17,1.00,-0.09,0.06,-0.73,-1.34
23280,0.17,1.00,-0.09,0.12,-0.12,-0.61
23300,0.17,1.00,-0.09,0.00,0.73,-0.18
23320,0.17,1.00,-0.09,-0.24,1.53,0.49
23340,0.17,1.00,-0.09,-0.49,1.40,0.98
23360,0.17,1.00,-0.09,-0.49,1.89,0.92
23380,0.17,1.00,-0.09,-0.12,2.08,1.34
23400,0.17,1.00,-0.09,-0.12,2.69,1.77
23420,0.18,1.00,-0.10,-0.43,3.17,2.08
23440,0.17,1.00,-0.09,-0.55,3.85,2.32
23460,0.18,1.00,-0.10,-0.55,4.76,2.81
23480,0.16,1.00,-0.09,-0.55,4.88,2.99
23500,0.14,1.00,-0.12,-3.23,2.08,8.06
23520,0.17,1.00,-0.10,-7.69,-0.24,11.23
23540,0.16,1.01,-0.10,-10.80,-2.75,12.33
23560,0.20,1.01,-0.09,-15.44,-5.92,13.12
23580,0.18,1.04,-0.08,-14.04,-5.98,13.18
23600,0.17,1.06,-0.08,-12.45,-8.30,16.85
23620,0.21,1.06,-0.08,-10.62,-9.95,22.71
23640,0.20,1.10,-0.09,-7.26,-11.29,28.02
23660,0.19,1.18,-0.09,-7.51,-12.08,34.85
23680,0.23,1.18,-0.09,-8.12,-13.00,43.82
23700,0.25,1.16,-0.16,-13.79,-10.44,55.11
23720,0.26,1.12,-0.16,-20.63,-11.47,61.22
23740,0.24,1.10,-0.12,-27.34,-13.00,66.96
23760,0.30,1.01,-0.05,-36.01,-15.20,73.30
23780,0.33,0.95,-0.00,-39.49,-14.89,76.05
23800,0.38,0.85,0.04,-41.32,-12.27,77.21
23820,0.43,0.78,0.08,-38.21,-6.90,71.72
23840,0.50,0.76,0.09,-36.56,-7.26,65.00
23860,0.54,0.71,0.09,-34.85,-5.49,57.13
23880,0.57,0.66,0.09,-30.58,-2.26,41.08
23900,0.59,0.63,0.14,-24.54,-2.69,30.46
23920,0.61,0.60,0.16,-17.70,-1.40,17.88
23940,0.64,0.60,0.18,-6.77,1.22,-3.48
23960,0.60,0.62,0.30,2.62,2.87,-17.21
23980,0.59,0.67,0.29,13.06,7.87,-30.64
24000,0.54,0.73,0.26,26.92,10.74,-45.84
24020,0.54,0.68,0.06,36.62,11.17,-51.39
24040,0.55,0.65,-0.11,31.80,15.63,-63.60
24060,0.50,0.75,-0.08,30.70,15.87,-78.55
24080,0.32,0.91,0.08,37.54,14.89,-87.40
24100,0.22,1.07,0.05,39.55,10.50,-82.64
24120,0.28,0.99,0.04,39.86,2.69,-71.04
24140,0.34,0.92,-0.11,32.29,17.33,-69.64
24160,0.41,0.80,-0.10,26.12,22.89,-78.12
24180,0.66,0.67,-0.08,19.71,36.68,-99.61
24200,-0.98,1.90,0.49,41.38,73.18,-99.79
24220,0.27,1.07,-0.13,7.69,-26.98,7.63
24240,0.30,0.92,-0.12,-12.63,5.13,10.80
24260,0.22,1.01,-0.01,-1.65,-1.10,-7.81
24280,0.21,0.99,-0.08,2.93,10.07,-5.68
24300,0.21,0.99,-0.10,3.48,6.47,-8.36
24320,0.20,1.00,-0.09,1.59,5.00,-9.16
24340,0.18,1.00,-0.08,2.38,1.28,-8.61
24360,0.18,1.00,-0.10,3.17,0.55,-7.63
24380,0.17,1.00,-0.09,0.31,0.43,-6.84
24400,0.17,1.01,-0.07,-0.92,-0.31,-5.55
24420,0.18,1.00,-0.07,-0.43,0.31,-3.66
24440,0.18,1.00,-0.08,1.04,0.37,-1.77
24460,0.18,1.00,-0.09,1.16,0.00,-1.46
24480,0.19,1.00,-0.09,1.16,-0.12,-1.65
24500,0.19,0.99,-0.09,1.10,-0.18,-2.50
24520,0.19,1.00,-0.10,0.61,-0.55,-3.66
24540,0.18,1.00,-0.10,-0.49,-1.04,-4.03
24560,0.17,1.00,-0.09,-0.92,-1.40,-4.09
24580,0.18,1.00,-0.09,-0.67,-1.77,-3.05
24600,0.18,1.00,-0.09,-0.67,-1.65,-2.69
24620,0.18,1.00,-0.09,-0.49,-1.28,-2.32
24640,0.17,1.00,-0.08,0.31,-0.37,-1.65
24660,0.17,1.00,-0.09,0.79,0.37,-0.67
24680,0.17,1.00,-0.08,1.22,0.67,0.24
24700,0.18,1.00,-0.10,1.83,1.71,0.55
24720,0.18,1.00,-0.10,1.77,2.56,0.55
24740,0.18,1.00,-0.09,1.77,2.50,0.79
24760,0.18,1.00,-0.10,2.26,2.26,1.10
24780,0.18,1.00,-0.10,1.95,2.69,1.28
24800,0.18,1.00,-0.10,1.71,2.81,1.53
24820,0.18,0.99,-0.11,1.10,3.30,1.89
24840,0.18,1.00,-0.11,0.18,3.36,2.01
24860,0.18,1.00,-0.11,-0.49,3.72,2.01
24880,0.18,1.00,-0.11,-0.85,3.72,2.14
24900,0.17,1.00,-0.11,-1.71,4.03,2.32
24920,0.18,1.00,-0.10,-2.87,3.60,3.23
24940,0.16,1.00,-0.10,-3.48,2.32,4.33
24960,0.16,1.00,-0.10,-6.04,-0.06,7.14
24980,0.18,1.00,-0.10,-8.97,-2.38,9.40
25000,0.18,1.01,-0.10,-11.23,-4.27,10.01
25020,0.14,1.07,-0.10,-14.16,-8.24,13.67
25040,0.19,1.07,-0.07,-15.56,-12.27,20.20
25060,0.18,1.10,-0.09,-14.40,-13.24,26.49
25080,0.19,1.14,-0.12,-9.70,-14.59,34.73
25100,0.18,1.18,-0.10,-9.03,-14.40,41.44
25120,0.25,1.19,-0.13,-13.18,-10.80,48.22
25140,0.29,1.17,-0.18,-18.80,-11.41,57.13
25160,0.28,1.06,-0.15,-24.54,-14.77,62.99
25180,0.28,1.01,-0.10,-31.68,-14.77,64.45
25200,0.33,0.92,-0.04,-37.90,-14.47,66.83
25220,0.38,0.84,0.00,-41.32,-12.82,66.96
25240,0.42,0.82,0.01,-42.11,-10.74,63.35
25260,0.45,0.80,0.02,-43.64,-9.34,53.96
25280,0.52,0.74,0.09,-41.99,-8.97,48.03
25300,0.53,0.69,0.11,-37.78,-6.10,38.70
25320,0.55,0.67,0.15,-31.62,-5.31,28.81
25340,0.58,0.66,0.18,-20.20,-2.20,11.96
25360,0.57,0.67,0.21,-10.25,0.18,0.18
25380,0.58,0.61,0.33,1.95,2.01,-11.72
25400,0.56,0.61,0.30,22.71,9.46,-33.33
25420,0.53,0.61,0.14,34.18,11.96,-47.00
25440,0.55,0.63,-0.04,34.55,11.23,-60.30
25460,0.35,1.13,0.07,39.00,9.22,-71.59
25480,0.37,0.94,0.08,38.64,11.66,-62.93
25500,0.38,0.72,0.07,42.42,10.80,-64.88
25520,0.33,0.76,-0.11,37.48,13.73,-73.91
25540,0.30,1.07,-0.17,25.94,14.53,-78.67
25560,0.17,1.25,-0.07,23.99,10.44,-75.38
25580,0.37,1.08,-0.09,25.51,22.16,-67.63
25600,0.12,1.54,-0.76,25.15,52.00,-80.38
25620,-0.35,1.55,-0.01,23.86,31.56,-63.35
25640,0.05,1.11,-0.06,-6.10,2.38,-2.14
25660,0.23,0.97,-0.07,-9.16,-0.85,-4.33
25680,0.22,1.00,-0.00,-2.62,-0.31,-8.06
25700,0.18,1.01,-0.04,4.15,9.28,-6.90
25720,0.18,1.00,-0.08,7.81,5.74,-6.59
25740,0.18,1.00,-0.10,5.98,4.76,-5.31
25760,0.19,0.99,-0.10,4.39,1.71,-4.64
25780,0.18,1.00,-0.10,2.38,0.49,-4.94
25800,0.18,1.00,-0.09,0.18,-1.53,-5.31
25820,0.18,1.00,-0.08,-0.79,-2.14,-4.94
25840,0.18,1.00,-0.08,-0.37,-1.28,-3.72
25860,0.18,1.00,-0.08,-0.24,-0.49,-3.05
25880,0.18,1.00,-0.09,0.12,-0.24,-2.93
25900,0.18,1.00,-0.09,0.24,-0.31,-2.81
25920,0.17,1.00,-0.09,-0.24,-0.67,-2.38
25940,0.18,1.00,-0.09,-0.55,-0.67,-2.08
25960,0.17,1.00,-0.09,-0.55,-0.73,-1.59
25980,0.18,1.00,-0.09,-0.12,-0.55,-1.59
26000,0.17,1.00,-0.08,0.24,-0.67,-1.34
26020,0.18,1.00,-0.09,0.61,0.00,-0.79
26040,0.18,1.00,-0.09,0.06,0.43,-0.73
26060,0.18,1.00,-0.09,-0.12,0.98,-0.31
26080,0.18,1.00,-0.09,0.00,1.22,-0.12
26100,0.18,1.00,-0.09,-0.31,1.40,0.49
26120,0.17,1.00,-0.09,-0.37,1.89,0.67
26140,0.18,1.00,-0.09,-0.37,2.14,1.22
26160,0.18,1.00,-0.09,0.18,2.75,1.59
26180,0.18,1.00,-0.09,0.49,3.23,1.95
26200,0.18,1.00,-0.09,0.61,3.60,2.08
26220,0.18,1.00,-0.09,0.49,3.66,2.32
26240,0.19,1.00,-0.10,0.49,4.27,2.32
26260,0.18,1.00,-0.10,-0.12,4.39,2.32
26280,0.18,1.00,-0.10,-0.49,4.33,2.38
26300,0.18,1.00,-0.10,-1.65,2.93,2.81
26320,0.17,1.00,-0.10,-2.99,1.89,3.91
26340,0.16,1.00,-0.10,-6.29,-1.46,7.69
26360,0.17,1.01,-0.10,-9.95,-3.42,10.19
26380,0.17,1.05,-0.06,-12.82,-6.23,13.12
26400,0.12,1.11,-0.09,-10.50,-11.66,22.77
26420,0.14,1.18,-0.15,-9.46,-16.54,34.24
26440,0.15,1.22,-0.20,-9.22,-20.63,44.49
26460,0.25,1.20,-0.12,-10.31,-20.08,58.59
26480,0.25,1.18,-0.17,-16.05,-14.53,65.37
26500,0.25,1.15,-0.14,-21.36,-14.83,72.33
26520,0.27,1.08,-0.10,-26.49,-15.20,80.87
26540,0.32,0.98,-0.00,-30.76,-14.77,83.07
26560,0.37,0.88,0.03,-32.35,-13.85,84.23
26580,0.42,0.82,0.01,-34.18,-10.38,82.70
26600,0.48,0.76,-0.02,-35.83,-7.08,76.42
26620,0.48,0.82,-0.02,-37.23,-6.35,69.09
26640,0.58,0.68,0.07,-37.05,-9.95,64.64
26660,0.62,0.54,0.16,-30.21,-8.18,44.86
26680,0.66,0.52,0.21,-20.14,-5.43,27.59
26700,0.66,0.47,0.24,-6.47,-2.69,9.77
26720,0.63,0.53,0.23,7.20,4.27,-15.81
26740,0.60,0.63,0.14,16.66,9.16,-30.27
26760,0.59,0.71,0.11,25.57,9.46,-42.36
26780,0.56,0.68,0.15,33.87,10.74,-58.59
26800,0.52,0.63,0.04,37.11,14.22,-69.64
26820,0.46,0.67,-0.18,31.74,17.82,-78.25
26840,0.42,0.93,-0.14,17.94,17.94,-87.34
26860,0.41,0.86,0.06,16.78,8.48,-86.00
26880,0.33,0.88,0.03,16.60,13.85,-90.94
26900,0.17,1.11,0.07,19.04,8.67,-85.08
26920,0.18,1.28,0.01,21.73,8.79,-68.24
26940,0.29,1.13,-0.11,24.72,10.31,-54.20
26960,0.43,1.00,-0.27,20.20,22.83,-56.27
26980,0.08,1.35,-0.36,0.49,36.38,-62.74
27000,-0.20,1.51,0.21,-5.43,3.72,-35.22
27020,0.25,1.00,-0.03,-3.48,-6.23,1.28
27040,0.29,0.93,-0.06,0.37,-2.62,-6.53
27060,0.25,0.98,-0.06,5.62,7.14,-11.84
27080,0.21,0.99,-0.12,6.35,13.79,-13.31
27100,0.21,1.01,-0.05,4.52,7.69,-13.43
27120,0.21,1.00,-0.07,5.68,8.54,-13.00
27140,0.17,1.01,-0.08,6.84,5.86,-14.71
27160,0.16,1.00,-0.09,4.09,2.01,-12.39
27180,0.18,1.00,-0.09,0.92,-0.06,-10.44
27200,0.17,1.00,-0.08,0.49,-0.12,-9.40
27220,0.17,1.00,-0.08,1.22,-0.61,-7.51
27240,0.17,1.00,-0.09,1.16,-1.34,-6.59
27260,0.16,1.00,-0.08,1.04,-2.32,-5.68
27280,0.16,1.00,-0.09,0.73,-4.03,-4.39
27300,0.17,1.00,-0.09,0.31,-4.15,-3.36
27320,0.17,1.00,-0.09,-0.49,-3.11,-2.62
27340,0.17,1.00,-0.08,-1.04,-2.26,-1.83
27360,0.17,1.00,-0.09,-1.22,-1.83,-1.40
27380,0.17,1.00,-0.08,-1.04,-1.28,-0.85
27400,0.18,1.00,-0.09,-0.85,-0.55,-0.55
27420,0.18,1.00,-0.09,-1.04,0.37,-0.43
27440,0.17,1.00,-0.08,-1.40,0.67,-0.24
27460,0.17,1.00,-0.09,-1.16,0.61,0.00
27480,0.17,1.00,-0.09,-1.28,0.98,0.37
27500,0.17,1.00,-0.08,-0.98,1.53,0.55
27520,0.17,1.00,-0.08,-0.79,1.77,1.10
27540,0.18,1.00,-0.08,0.18,2.44,1.95
27560,0.18,1.00,-0.09,0.61,2.93,2.08
27580,0.18,1.00,-0.09,1.10,3.60,2.26
27600,0.17,1.00,-0.08,0.98,4.58,2.44
27620,0.18,1.00,-0.09,1.22,4.88,2.69
27640,0.16,1.00,-0.09,0.79,5.37,3.54
27660,0.15,1.01,-0.10,-0.61,3.11,7.75
27680,0.17,1.00,-0.10,-3.60,1.53,9.83
27700,0.15,1.01,-0.09,-6.10,-0.92,11.11
27720,0.16,1.02,-0.08,-12.45,-5.49,16.91
27740,0.12,1.15,-0.09,-15.01,-9.40,21.73
27760,0.19,1.14,-0.11,-14.22,-16.66,30.88
27780,0.22,1.12,-0.13,-8.00,-18.25,39.18
27800,0.22,1.18,-0.11,-4.70,-16.54,45.29
27820,0.27,1.17,-0.15,-8.97,-13.73,52.49
27840,0.26,1.16,-0.18,-15.63,-11.90,59.45
27860,0.26,1.08,-0.15,-26.49,-12.63,69.09
27880,0.30,0.95,-0.09,-33.87,-13.73,71.47
27900,0.34,0.92,-0.07,-39.43,-13.73,69.76
27920,0.38,0.86,0.03,-42.48,-12.15,67.50
27940,0.43,0.80,0.07,-41.44,-11.78,65.06
27960,0.43,0.84,0.09,-38.82,-10.07,60.06
27980,0.51,0.76,0.14,-33.26,-9.89,52.43
28000,0.53,0.71,0.14,-28.38,-7.51,43.82
28020,0.58,0.66,0.14,-23.38,-4.64,34.06
28040,0.64,0.56,0.16,-12.02,-0.73,14.04
28060,0.63,0.44,0.20,-5.37,3.23,-4.64
28080,0.53,0.62,0.23,4.09,7.51,-22.89
28100,0.50,0.76,0.20,18.62,7.20,-33.45
28120,0.52,0.85,0.13,27.89,3.05,-35.28
28140,0.51,0.85,0.01,29.72,6.71,-40.65
28160,0.53,0.76,-0.02,29.11,11.17,-52.86
28180,0.40,0.83,-0.06,25.45,13.85,-62.62
28200,0.36,0.91,0.01,23.62,6.77,-62.62
28220,0.31,1.03,0.01,23.19,5.43,-56.82
28240,0.36,0.94,0.00,24.35,6.53,-60.55
28260,0.40,0.76,0.06,24.54,9.64,-65.73
28280,0.32,0.83,-0.05,20.81,20.32,-75.44
28300,0.20,1.14,0.00,19.59,14.04,-77.51
28320,0.37,1.14,-0.10,20.87,19.71,-69.27
28340,0.17,1.32,-0.63,19.23,44.37,-72.51
28360,-0.13,1.36,0.23,12.21,9.28,-35.16
28380,0.20,1.00,-0.10,3.97,5.80,-1.04
28400,0.22,0.96,-0.09,0.12,3.97,-1.40
28420,0.20,1.01,-0.05,4.46,9.40,-5.19
28440,0.18,1.00,-0.08,6.71,10.25,-3.78
28460,0.19,1.00,-0.09,5.86,5.68,-3.23
28480,0.19,0.99,-0.10,2.75,1.65,-3.72
28500,0.19,1.00,-0.09,2.44,-0.73,-4.46
28520,0.19,0.99,-0.10,2.20,-0.43,-4.82
28540,0.19,1.00,-0.10,0.67,-0.49,-4.76
28560,0.18,1.00,-0.09,0.12,0.00,-4.64
28580,0.18,1.00,-0.08,-0.43,-0.73,-4.39
28600,0.18,1.00,-0.09,0.06,-0.79,-3.11
28620,0.19,0.99,-0.10,-0.24,-0.37,-3.11
28640,0.19,1.00,-0.10,-0.98,-0.24,-3.36
28660,0.19,1.00,-0.09,-2.26,0.00,-3.11
28680,0.18,1.00,-0.09,-2.50,0.00,-2.75
28700,0.18,1.00,-0.09,-2.81,-0.06,-2.20
28720,0.18,1.00,-0.08,-2.99,-0.49,-1.65
28740,0.18,1.00,-0.08,-1.65,0.37,-1.34
28760,0.18,1.00,-0.08,-0.73,0.49,-0.61
28780,0.19,1.00,-0.09,-0.06,0.73,0.18
28800,0.18,1.00,-0.09,0.18,1.40,0.24
28820,0.18,1.00,-0.08,0.55,1.65,0.37
28840,0.19,1.00,-0.09,0.85,1.59,0.61
28860,0.18,1.00,-0.09,1.46,1.65,0.73
28880,0.19,1.00,-0.09,1.28,1.34,1.28
28900,0.18,1.00,-0.09,1.65,1.95,1.16
28920,0.19,1.00,-0.10,1.59,2.20,1.46
28940,0.18,1.00,-0.09,1.59,3.17,1.34
28960,0.18,1.00,-0.10,1.53,3.48,1.65
28980,0.19,1.00,-0.10,1.04,3.60,2.08
29000,0.19,0.99,-0.10,0.55,3.78,1.95
29020,0.19,1.00,-0.10,-0.06,3.97,1.89
29040,0.19,1.00,-0.10,-0.37,4.03,1.89
29060,0.18,1.00,-0.10,-1.04,3.42,2.26
29080,0.17,1.00,-0.09,-1.53,2.38,3.36
29100,0.19,1.00,-0.10,-2.50,1.16,5.25
29120,0.17,1.00,-0.10,-5.31,-0.61,5.25
29140,0.17,1.02,-0.09,-8.36,-2.99,8.18
29160,0.17,1.03,-0.08,-11.11,-4.88,12.08
29180,0.16,1.08,-0.09,-10.80,-9.64,19.84
29200,0.18,1.11,-0.10,-10.56,-12.88,26.73
29220,0.20,1.12,-0.11,-6.23,-15.93,33.02
29240,0.23,1.16,-0.13,-3.97,-16.72,42.54
29260,0.22,1.22,-0.16,-6.90,-15.44,49.44
29280,0.24,1.21,-0.19,-12.39,-14.71,59.88
29300,0.26,1.12,-0.15,-23.19,-14.89,72.57
29320,0.30,1.01,-0.10,-29.91,-15.63,77.39
29340,0.33,0.92,-0.03,-34.42,-15.38,78.37
29360,0.35,0.88,0.06,-35.83,-14.16,77.51
29380,0.43,0.77,0.04,-35.71,-11.47,73.79
29400,0.50,0.69,0.06,-33.02,-10.99,68.54
29420,0.54,0.64,0.04,-30.15,-6.96,50.17
29440,0.58,0.62,0.06,-26.18,-7.39,38.70
29460,0.59,0.60,0.09,-20.57,-5.25,24.72
29480,0.59,0.64,0.14,-13.43,-5.07,6.04
29500,0.60,0.66,0.22,-1.71,-2.50,-4.70
29520,0.63,0.59,0.24,5.74,1.77,-18.19
29540,0.59,0.58,0.23,16.11,8.30,-35.40
29560,0.49,0.79,0.13,31.86,12.02,-54.14
29580,0.47,0.86,0.01,34.67,10.31,-56.03
29600,0.44,0.90,-0.10,32.10,12.15,-56.88
29620,0.48,0.79,-0.13,26.49,14.89,-64.09
29640,0.48,0.56,-0.08,23.44,17.52,-75.74
29660,0.32,0.77,-0.09,16.48,23.25,-91.61
29680,0.13,1.32,-0.01,11.78,11.78,-93.81
29700,0.23,1.23,0.07,14.71,3.48,-72.27
29720,0.40,0.99,0.03,19.84,11.78,-65.00
29740,0.19,1.41,-0.86,18.43,61.95,-92.16
29760,-0.62,1.71,0.14,21.73,46.57,-81.05
29780,0.07,1.12,-0.02,6.90,-11.72,-11.60
29800,0.26,0.92,-0.17,-9.22,-0.55,1.65
29820,0.24,1.00,-0.01,-3.91,-4.52,-5.55
29840,0.18,1.01,-0.06,2.44,10.56,-3.72
29860,0.20,1.00,-0.08,5.43,4.88,-3.97
29880,0.19,0.99,-0.09,3.91,5.25,-3.85
29900,0.20,0.99,-0.09,3.78,2.08,-4.70
29920,0.19,0.99,-0.10,5.07,2.01,-5.86
29940,0.18,1.00,-0.10,1.34,0.43,-5.92
29960,0.18,1.00,-0.08,-0.85,-0.61,-4.88
29980,0.18,1.00,-0.08,-0.73,-0.43,-4.03
30000,0.19,1.00,-0.09,0.73,-0.24,-3.54
30020,0.19,0.99,-0.10,0.49,0.06,-3.85
30040,0.19,0.99,-0.10,-0.24,-0.12,-4.15
30060,0.18,1.00,-0.10,-1.71,-0.61,-4.03
30080,0.18,1.00,-0.09,-2.38,-0.79,-3.48
30100,0.18,1.00,-0.09,-2.50,-0.92,-3.11
30120,0.18,1.00,-0.09,-2.20,-1.22,-2.44
30140,0.18,1.00,-0.09,-1.89,-1.28,-2.20
30160,0.18,1.00,-0.09,-1.28,-1.04,-1.77
30180,0.18,1.00,-0.09,-0.79,-0.06,-1.10
30200,0.18,1.00,-0.09,-0.37,0.49,-0.43
30220,0.18,1.00,-0.09,-0.92,0.98,0.06
30240,0.18,1.00,-0.09,-0.98,1.22,0.49
30260,0.18,1.00,-0.09,-0.98,1.40,0.85
30280,0.18,1.00,-0.09,-0.85,1.59,0.98
30300,0.18,1.00,-0.09,-0.61,1.83,1.10
30320,0.18,1.00,-0.09,-0.06,2.20,1.53
30340,0.18,1.00,-0.09,0.06,2.32,1.65
30360,0.18,1.00,-0.09,0.37,2.93,1.89
30380,0.18,1.00,-0.09,0.37,3.54,2.08
30400,0.18,1.00,-0.09,0.55,3.60,2.26
30420,0.19,1.00,-0.10,0.55,3.97,2.38
30440,0.19,1.00,-0.10,0.55,4.15,2.32
30460,0.18,1.00,-0.10,0.43,4.15,2.50
30480,0.17,1.00,-0.09,0.18,3.60,3.42
30500,0.17,1.00,-0.10,-1.40,1.40,6.53
30520,0.18,1.00,-0.11,-3.36,-0.43,8.42
30540,0.17,1.01,-0.10,-6.59,-2.69,9.89
30560,0.17,1.04,-0.10,-11.17,-5.98,14.89
30580,0.15,1.09,-0.08,-13.06,-8.91,20.14
30600,0.17,1.13,-0.09,-11.41,-12.76,27.83
30620,0.20,1.11,-0.10,-4.58,-14.34,37.60
30640,0.21,1.20,-0.08,-2.50,-14.59,45.10
30660,0.25,1.18,-0.14,-5.31,-10.68,54.08
30680,0.27,1.13,-0.22,-15.01,-8.36,62.74
30700,0.27,1.11,-0.18,-22.46,-10.74,66.89
30720,0.28,1.05,-0.14,-28.99,-15.26,72.14
30740,0.30,1.00,-0.09,-35.89,-18.74,76.48
30760,0.37,0.90,-0.02,-45.10,-18.13,79.22
30780,0.42,0.82,-0.00,-49.07,-13.73,80.99
30800,0.48,0.74,0.02,-48.34,-11.23,76.17
30820,0.54,0.66,0.12,-45.78,-9.89,61.89
30840,0.60,0.58,0.16,-39.98,-8.06,49.80
30860,0.60,0.57,0.18,-31.31,-5.74,34.79
30880,0.62,0.56,0.23,-15.01,-2.08,13.85
30900,0.66,0.52,0.25,-3.60,-0.06,-0.98
30920,0.64,0.51,0.26,8.61,4.88,-19.04
30940,0.60,0.60,0.20,28.20,10.68,-44.49
30960,0.55,0.59,0.13,38.33,13.12,-58.65
30980,0.55,0.69,-0.02,38.09,15.20,-70.80
31000,0.37,1.10,-0.04,38.76,14.10,-76.72
31020,0.38,1.11,0.04,40.10,12.33,-69.09
31040,0.43,0.60,0.15,42.36,11.41,-67.02
31060,0.34,0.66,-0.03,39.67,25.15,-85.33
31080,0.19,1.24,-0.22,28.14,21.24,-79.77
31100,0.21,1.33,-0.21,19.41,15.75,-65.73
31120,0.30,1.15,-0.08,17.33,9.89,-47.18
31140,0.47,0.80,-0.15,12.02,26.12,-57.19
31160,0.29,1.15,-0.66,4.09,48.58,-80.08
31180,-0.30,1.65,-0.11,1.40,49.99,-52.31
31200,0.17,1.05,-0.07,-0.61,-3.54,-7.14
31220,0.23,0.96,-0.10,-7.45,0.61,-1.59
31240,0.24,1.00,-0.03,-1.40,-4.39,-7.20
31260,0.19,0.99,-0.11,3.97,9.83,-7.81
31280,0.18,1.00,-0.10,2.50,4.58,-8.61
31300,0.17,1.00,-0.09,0.55,3.42,-6.77
31320,0.18,1.00,-0.09,0.79,-1.71,-5.80
31340,0.18,1.00,-0.09,0.92,-1.65,-5.49
31360,0.19,1.00,-0.10,0.00,-1.71,-5.31
31380,0.18,1.00,-0.08,-1.04,-0.92,-5.43
31400,0.17,1.00,-0.08,-0.18,-0.31,-5.07
31420,0.18,1.00,-0.09,0.49,-0.67,-4.21
31440,0.18,1.00,-0.09,0.67,-1.53,-3.91
31460,0.18,1.00,-0.10,0.49,-1.89,-4.21
31480,0.17,1.00,-0.10,0.18,-1.53,-4.39
31500,0.17,1.00,-0.10,-0.37,-1.77,-4.33
31520,0.17,1.00,-0.09,-0.98,-2.20,-3.78
31540,0.18,1.00,-0.10,-0.98,-2.38,-3.42
31560,0.17,1.00,-0.09,-1.46,-2.08,-3.54
31580,0.17,1.00,-0.09,-1.89,-1.40,-3.05
31600,0.17,1.00,-0.09,-1.95,-1.16,-2.44
31620,0.16,1.00,-0.09,-1.71,-1.10,-2.20
31640,0.17,1.00,-0.09,-1.53,-0.12,-1.10
31660,0.17,1.00,-0.09,-1.71,0.31,-0.55
31680,0.16,1.00,-0.08,-1.53,0.79,0.06
31700,0.17,1.00,-0.08,-1.16,1.22,1.28
31720,0.17,1.00,-0.09,-0.18,1.65,1.83
31740,0.17,1.00,-0.08,0.31,2.08,1.95
31760,0.17,1.00,-0.09,1.16,3.11,2.26
31780,0.17,1.00,-0.09,1.46,3.60,2.44
31800,0.18,1.00,-0.09,1.16,4.33,2.87
31820,0.18,1.00,-0.10,1.22,5.13,3.17
31840,0.18,1.00,-0.10,0.85,5.43,3.42
31860,0.18,0.99,-0.10,0.61,5.92,3.36
31880,0.16,1.00,-0.09,-0.49,5.00,5.00
31900,0.15,1.01,-0.09,-1.89,3.42,8.73
31920,0.18,1.00,-0.11,-4.64,1.46,11.78
31940,0.18,1.00,-0.10,-7.20,-2.38,12.76
31960,0.16,1.04,-0.08,-10.19,-3.97,14.40
31980,0.15,1.07,-0.06,-10.56,-6.77,18.13
32000,0.16,1.12,-0.11,-10.13,-10.56,29.85
32020,0.18,1.16,-0.13,-6.77,-14.04,37.96
32040,0.20,1.23,-0.15,-5.19,-15.56,46.14
32060,0.24,1.20,-0.12,-4.33,-16.11,54.81
32080,0.25,1.16,-0.19,-10.80,-11.11,68.42
32100,0.26,1.09,-0.20,-18.92,-12.63,74.77
32120,0.27,1.08,-0.19,-27.53,-14.40,79.65
32140,0.35,0.92,-0.07,-38.09,-18.55,83.98
32160,0.37,0.88,-0.02,-42.54,-16.72,82.58
32180,0.45,0.77,0.02,-45.41,-15.81,81.48
32200,0.53,0.66,0.11,-42.60,-11.90,69.03
32220,0.57,0.60,0.16,-36.56,-10.31,55.48
32240,0.57,0.63,0.19,-29.24,-8.30,41.20
32260,0.60,0.57,0.21,-17.03,-6.71,22.77
32280,0.62,0.55,0.16,-9.28,-2.69,7.81
32300,0.65,0.53,0.13,-0.55,-0.61,-6.35
32320,0.66,0.46,0.17,11.96,5.31,-36.93
32340,0.56,0.61,0.14,21.12,7.08,-54.63
32360,0.50,0.77,0.07,27.22,8.24,-65.55
32380,0.44,0.89,-0.01,30.09,6.16,-68.73
32400,0.39,1.03,-0.07,26.49,6.41,-64.82
32420,0.43,0.96,-0.02,21.67,5.43,-63.42
32440,0.45,0.62,0.04,21.55,7.81,-68.85
32460,0.30,0.86,-0.07,14.28,16.36,-83.50
32480,0.15,1.37,-0.01,12.94,13.12,-84.05
32500,0.16,1.36,0.10,18.74,2.87,-62.38
32520,0.36,0.95,-0.03,26.73,4.82,-44.37
32540,0.48,0.69,-0.07,24.66,18.92,-53.65
32560,0.60,0.76,-0.33,16.48,46.08,-78.19
32580,-0.62,1.70,0.24,9.03,31.07,-64.45
32600,0.22,1.04,-0.11,-2.93,-16.30,-2.87
32620,0.23,0.97,-0.08,-12.33,0.79,0.24
32640,0.23,1.01,0.03,-1.40,-4.70,-7.20
32660,0.21,0.99,-0.07,5.49,8.54,-7.32
32680,0.18,1.00,-0.10,7.08,5.07,-9.70
32700,0.16,1.01,-0.07,3.05,2.99,-7.57
32720,0.18,1.00,-0.06,2.32,-1.28,-5.80
32740,0.18,1.00,-0.07,2.75,-1.71,-4.88
32760,0.19,0.99,-0.09,-0.06,-0.85,-5.74
32780,0.17,1.01,-0.06,-1.28,-0.12,-5.92
32800,0.17,1.01,-0.05,-0.37,-0.06,-4.58
32820,0.17,1.01,-0.05,1.34,0.37,-3.72
32840,0.18,1.00,-0.08,2.56,0.24,-3.42
32860,0.18,1.00,-0.09,2.01,-0.12,-3.91
32880,0.17,1.00,-0.09,0.18,-0.49,-3.85
32900,0.17,1.00,-0.08,-1.89,-1.40,-3.30
32920,0.16,1.00,-0.07,-2.14,-1.22,-2.93
32940,0.17,1.00,-0.07,-1.77,-1.34,-2.32
32960,0.17,1.00,-0.08,-1.28,-1.04,-1.89
32980,0.17,1.00,-0.07,-1.34,-0.92,-1.95
33000,0.17,1.00,-0.07,-1.59,-0.85,-1.40
33020,0.17,1.00,-0.07,-0.98,-0.31,-1.16
33040,0.17,1.00,-0.07,-0.67,0.73,-0.73
33060,0.17,1.00,-0.07,-0.55,1.34,-0.43
33080,0.17,1.00,-0.07,-0.49,1.34,0.31
33100,0.17,1.00,-0.07,-0.49,1.46,0.67
33120,0.17,1.00,-0.07,0.37,1.89,1.04
33140,0.17,1.00,-0.07,0.55,2.38,1.46
33160,0.17,1.00,-0.08,0.37,2.75,1.83
33180,0.17,1.00,-0.08,-0.06,2.99,2.08
33200,0.17,1.00,-0.08,0.24,3.66,2.32
33220,0.17,1.00,-0.08,0.00,4.03,2.50
33240,0.18,1.00,-0.08,0.18,4.33,2.75
33260,0.18,1.00,-0.08,-0.06,4.64,3.05
33280,0.17,1.00,-0.08,-0.37,5.25,3.78
33300,0.16,1.00,-0.08,-0.67,5.31,5.37
33320,0.16,1.01,-0.08,-2.08,3.78,8.24
33340,0.18,1.00,-0.09,-4.88,1.46,10.38
33360,0.14,1.02,-0.08,-6.29,-0.55,11.60
33380,0.16,1.03,-0.08,-11.47,-3.17,15.99
33400,0.17,1.07,-0.10,-14.34,-9.28,23.74
33420,0.17,1.15,-0.11,-13.55,-12.82,30.15
33440,0.26,1.07,-0.12,-7.26,-19.65,39.61
33460,0.24,1.22,-0.10,-4.39,-21.06,51.70
33480,0.25,1.23,-0.13,-9.40,-17.70,62.19
33500,0.23,1.23,-0.15,-16.97,-15.99,73.12
33520,0.24,1.12,-0.14,-29.72,-15.20,88.07
33540,0.29,1.02,-0.14,-37.96,-16.17,93.02
33560,0.32,0.94,-0.11,-44.98,-15.69,95.21
33580,0.39,0.86,-0.01,-48.71,-20.32,96.25
33600,0.49,0.68,0.14,-44.56,-18.43,89.54
33620,0.58,0.55,0.19,-37.11,-18.74,77.39
33640,0.61,0.47,0.18,-28.44,-13.49,49.13
33660,0.64,0.45,0.23,-15.75,-10.25,31.01
33680,0.64,0.47,0.25,-8.91,-6.35,13.00
33700,0.67,0.50,0.25,-1.77,-2.87,-3.91
33720,0.66,0.49,0.28,12.94,5.00,-32.59
33740,0.61,0.55,0.25,25.09,11.05,-53.04
33760,0.55,0.60,0.20,36.19,15.44,-69.82
33780,0.42,0.89,-0.02,40.95,14.77,-81.18
33800,0.38,1.04,-0.08,39.55,12.33,-77.70
33820,0.36,1.09,-0.11,38.02,12.33,-68.30
33840,0.47,0.74,-0.01,30.15,12.39,-68.97
33860,0.46,0.54,-0.02,26.61,21.00,-84.17
33880,0.26,0.94,-0.15,19.23,28.56,-99.06
33900,0.11,1.44,0.11,21.36,14.71,-85.51
33920,0.26,1.17,0.08,30.03,14.83,-63.35
33940,0.55,0.92,-0.29,33.45,37.35,-60.00
33960,0.08,1.41,-0.15,20.26,52.06,-70.74
33980,-0.06,1.21,0.08,5.68,-0.43,-21.91
34000,0.23,0.95,-0.13,-3.30,4.27,3.91
34020,0.25,0.96,-0.09,0.73,-1.59,-5.07
34040,0.20,1.00,-0.08,6.23,10.01,-5.62
34060,0.19,1.00,-0.10,8.91,8.67,-5.74
34080,0.18,1.00,-0.11,7.63,6.35,-4.70
34100,0.19,0.99,-0.11,4.52,1.77,-3.72
34120,0.19,0.99,-0.11,3.78,0.98,-3.60
34140,0.19,1.00,-0.11,2.08,0.37,-3.91
34160,0.19,1.00,-0.11,0.49,-0.67,-3.72
34180,0.19,1.00,-0.10,-0.31,-0.73,-3.60
34200,0.19,1.00,-0.11,0.37,-0.98,-4.15
34220,0.19,0.99,-0.13,0.73,-0.24,-4.70
34240,0.19,0.99,-0.13,-1.04,-0.37,-5.19
34260,0.18,0.99,-0.12,-3.30,-0.98,-5.19
34280,0.18,1.00,-0.11,-4.70,-1.04,-4.58
34300,0.18,1.00,-0.10,-5.13,-0.92,-4.33
34320,0.18,1.00,-0.09,-4.58,-0.79,-4.03
34340,0.18,1.00,-0.10,-3.36,-0.73,-3.72
34360,0.18,1.00,-0.10,-2.50,-0.73,-3.17
34380,0.18,1.00,-0.10,-2.01,-0.31,-2.56
34400,0.17,1.00,-0.09,-0.98,0.12,-1.83
34420,0.17,1.00,-0.10,-0.55,0.31,-0.98
34440,0.17,1.00,-0.10,-0.61,0.37,-0.49
34460,0.17,1.00,-0.10,-0.92,0.61,0.12
34480,0.18,1.00,-0.10,-1.04,0.61,0.24
34500,0.17,1.00,-0.10,-0.61,1.10,0.49
34520,0.18,1.00,-0.10,-0.24,1.10,0.73
34540,0.18,1.00,-0.11,0.12,1.89,1.16
34560,0.18,1.00,-0.10,-0.06,2.26,1.40
34580,0.18,1.00,-0.11,0.06,2.81,1.77
34600,0.18,1.00,-0.11,-0.18,3.05,2.01
34620,0.18,1.00,-0.11,-0.61,3.54,2.08
34640,0.18,1.00,-0.11,-1.10,3.48,2.08
34660,0.17,1.00,-0.10,-1.22,3.11,2.20
34680,0.16,1.00,-0.10,-1.40,2.32,2.81
34700,0.12,1.02,-0.09,-1.71,0.61,6.53
34720,0.14,1.03,-0.09,-8.85,-3.48,14.89
34740,0.18,1.02,-0.10,-13.85,-8.67,18.55
34760,0.16,1.10,-0.08,-16.17,-10.99,21.91
34780,0.18,1.18,-0.10,-11.05,-13.37,30.64
34800,0.18,1.20,-0.11,-6.10,-17.21,39.49
34820,0.22,1.22,-0.10,-2.50,-16.05,49.50
34840,0.26,1.21,-0.13,-7.45,-10.99,63.35
34860,0.22,1.21,-0.21,-12.15,-10.86,72.69
34880,0.25,1.15,-0.20,-20.08,-14.34,82.03
34900,0.26,1.10,-0.15,-28.44,-18.49,91.19
34920,0.34,0.93,-0.09,-40.28,-17.52,94.60
34940,0.40,0.85,-0.05,-48.34,-14.59,94.18
34960,0.49,0.68,0.01,-52.25,-11.96,90.52
34980,0.57,0.61,0.09,-47.79,-7.45,71.23
35000,0.60,0.56,0.13,-39.49,-7.57,56.70
35020,0.60,0.57,0.16,-31.80,-6.59,42.85
35040,0.62,0.58,0.20,-19.04,-8.18,22.34
35060,0.64,0.58,0.21,-7.93,-3.97,10.93
35080,0.68,0.56,0.24,2.44,-0.92,-2.38
35100,0.64,0.49,0.24,18.07,8.42,-31.01
35120,0.53,0.59,0.17,27.71,13.06,-47.97
35140,0.50,0.86,0.07,33.45,13.37,-54.75
35160,0.50,0.97,-0.05,37.84,7.63,-50.90
35180,0.50,0.91,-0.10,35.95,6.47,-48.95
35200,0.57,0.69,-0.06,30.46,9.34,-55.24
35220,0.50,0.40,-0.15,21.91,21.48,-81.36
35240,0.27,0.93,-0.17,11.41,23.68,-93.69
35260,0.19,1.44,-0.04,12.15,13.55,-89.11
35280,0.24,1.26,0.12,18.98,0.37,-55.48
35300,0.38,0.87,0.02,21.30,7.87,-50.72
35320,0.51,0.53,-0.04,19.71,19.78,-63.96
35340,0.50,0.59,-0.18,14.65,41.02,-108.58
35360,-0.80,2.18,-0.41,13.85,94.91,-121.83
35380,-0.11,1.45,0.37,11.35,-28.02,-26.98
35400,0.30,0.88,-0.25,-4.70,7.75,8.97
35420,0.24,0.98,-0.07,-4.33,-7.20,-7.08
35440,0.19,1.01,-0.05,-1.22,5.74,-7.63
35460,0.19,1.00,-0.09,0.98,4.76,-7.32
35480,0.18,1.00,-0.09,1.83,3.36,-5.19
35500,0.19,1.00,-0.09,2.50,0.37,-3.30
35520,0.20,0.99,-0.11,2.99,-0.24,-2.62
35540,0.19,0.99,-0.11,-0.18,-0.24,-3.97
35560,0.19,1.00,-0.09,-2.38,-0.67,-4.52
35580,0.19,1.00,-0.08,-1.89,-0.98,-4.09
35600,0.22,1.00,-0.09,0.12,-0.67,-3.23
35620,0.19,0.99,-0.10,0.37,-0.98,-3.23
35640,0.19,0.99,-0.11,-0.49,-1.04,-3.91
35660,0.19,0.99,-0.11,-2.62,-1.34,-4.76
35680,0.18,1.00,-0.09,-3.54,-1.83,-4.82
35700,0.18,1.00,-0.09,-3.66,-2.14,-4.64
35720,0.18,1.00,-0.09,-2.87,-2.38,-4.39
35740,0.17,1.00,-0.08,-1.65,-1.53,-4.03
35760,0.17,1.00,-0.09,-0.73,-0.67,-3.23
35780,0.17,1.00,-0.08,-0.98,-0.37,-1.89
35800,0.17,1.00,-0.08,-0.55,0.31,-0.73
35820,0.18,1.00,-0.08,0.67,0.85,-0.06
35840,0.18,1.00,-0.09,1.28,1.28,0.61
35860,0.18,1.00,-0.09,1.83,1.59,1.34
35880,0.18,1.00,-0.09,2.38,1.95,1.22
35900,0.18,1.00,-0.09,2.81,1.77,1.28
35920,0.18,1.00,-0.10,2.69,1.53,1.22
35940,0.19,0.99,-0.11,2.20,1.71,0.92
35960,0.19,0.99,-0.11,1.22,1.65,0.49
35980,0.18,1.00,-0.10,0.31,2.50,0.24
36000,0.18,0.99,-0.11,-0.06,2.50,0.55
36020,0.18,1.00,-0.10,-0.61,3.11,0.79
36040,0.18,0.99,-0.11,-1.34,3.78,1.28
36060,0.18,1.00,-0.10,-2.01,4.52,1.59
36080,0.18,1.00,-0.09,-1.83,5.07,2.01
36100,0.15,1.01,-0.09,-1.22,4.52,4.27
36120,0.14,1.01,-0.09,-1.95,2.81,8.48
36140,0.15,1.02,-0.10,-5.07,0.00,14.10
36160,0.16,1.02,-0.12,-9.46,-3.17,18.31
36180,0.15,1.07,-0.08,-15.44,-8.12,20.69
36200,0.20,1.11,-0.11,-15.08,-12.94,26.79
36220,0.17,1.14,-0.10,-10.25,-14.53,31.98
36240,0.22,1.13,-0.11,-5.19,-13.92,40.89
36260,0.25,1.12,-0.10,-5.43,-11.60,45.72
36280,0.25,1.14,-0.15,-9.03,-7.87,51.09
36300,0.26,1.13,-0.17,-15.26,-8.79,60.30
36320,0.28,1.08,-0.13,-20.51,-11.66,66.16
36340,0.30,1.03,-0.11,-26.73,-13.49,69.89
36360,0.36,0.91,-0.04,-33.26,-14.53,72.75
36380,0.37,0.91,-0.03,-36.01,-12.57,71.96
36400,0.40,0.93,0.01,-37.11,-12.76,73.85
36420,0.46,0.83,0.05,-36.13,-9.52,73.49
36440,0.52,0.77,0.04,-35.89,-7.81,67.20
36460,0.57,0.69,0.07,-34.85,-6.90,60.67
36480,0.58,0.68,0.08,-30.21,-3.66,46.02
36500,0.60,0.64,0.12,-24.90,-3.48,35.71
36520,0.62,0.63,0.17,-17.88,-2.87,25.82
36540,0.64,0.53,0.17,-5.86,-1.65,7.14
36560,0.69,0.42,0.25,2.14,5.37,-10.31
36580,0.67,0.49,0.23,13.67,11.66,-31.37
36600,0.60,0.65,0.20,26.31,15.63,-54.93
36620,0.52,0.81,0.12,37.78,13.43,-62.32
36640,0.54,0.70,0.02,37.78,11.54,-65.55
36660,0.53,0.58,-0.10,34.61,14.34,-74.04
36680,0.43,0.80,-0.09,34.61,17.27,-91.55
36700,0.34,0.87,-0.09,30.15,18.80,-97.47
36720,0.27,1.01,-0.07,25.02,13.79,-99.00
36740,0.26,1.14,-0.01,18.13,12.08,-90.09
36760,0.38,0.84,0.06,22.71,16.54,-85.57
36780,0.50,0.69,-0.03,26.25,32.41,-99.73
36800,-0.92,2.59,-1.21,40.83,118.71,-139.89
36820,-0.30,1.51,0.42,20.81,-34.06,-30.82
36840,0.30,0.83,-0.37,-3.48,12.94,22.64
36860,0.23,0.95,-0.08,-4.64,-6.96,-1.59
36880,0.20,1.02,-0.03,-1.59,6.35,-3.72
36900,0.21,0.99,-0.11,2.14,9.16,-3.60
36920,0.20,1.00,-0.10,1.71,4.82,-6.10
36940,0.19,0.99,-0.11,1.53,2.08,-5.86
36960,0.20,0.99,-0.11,1.16,-1.28,-6.84
36980,0.19,0.99,-0.12,-0.24,-1.34,-7.32
37000,0.18,1.00,-0.09,-4.33,-2.32,-7.26
37020,0.19,1.00,-0.08,-3.91,-2.26,-6.41
37040,0.18,1.01,-0.07,-1.65,-1.95,-6.35
37060,0.18,1.00,-0.10,0.37,-0.73,-5.25
37080,0.18,0.99,-0.11,0.00,-0.98,-5.07
37100,0.18,0.99,-0.11,-1.04,-1.10,-5.68
37120,0.18,1.00,-0.10,-1.71,-2.20,-6.16
37140,0.17,1.00,-0.10,-2.56,-2.26,-5.98
37160,0.17,1.00,-0.09,-2.75,-2.81,-6.10
37180,0.16,1.00,-0.08,-2.14,-2.20,-5.43
37200,0.17,1.00,-0.09,-1.04,-2.26,-4.76
37220,0.16,1.00,-0.10,-0.43,-1.65,-4.15
37240,0.17,1.00,-0.10,-0.92,-1.34,-2.44
37260,0.17,1.00,-0.10,-1.53,-0.43,-1.53
37280,0.16,1.00,-0.09,-1.34,0.12,-0.73
37300,0.16,1.00,-0.09,-0.55,0.61,0.73
37320,0.17,1.00,-0.09,-0.37,1.04,0.73
37340,0.17,1.00,-0.09,-0.12,1.22,0.92
37360,0.17,1.00,-0.09,0.79,1.65,1.34
37380,0.17,1.00,-0.09,0.79,1.83,1.40
37400,0.17,1.00,-0.09,0.92,2.32,1.71
37420,0.17,1.00,-0.10,1.28,2.56,2.14
37440,0.17,1.00,-0.10,1.46,3.17,2.26
37460,0.17,1.00,-0.10,1.59,3.91,2.32
37480,0.17,1.00,-0.10,1.46,4.39,2.56
37500,0.18,0.99,-0.11,1.10,5.31,3.66
37520,0.17,1.00,-0.10,0.67,5.80,3.60
37540,0.17,1.00,-0.10,0.85,5.74,4.64
37560,0.16,1.00,-0.10,-0.85,5.00,7.57
37580,0.15,1.00,-0.11,-2.87,3.54,10.62
37600,0.17,1.01,-0.11,-7.45,0.85,13.67
37620,0.19,1.02,-0.11,-12.76,-4.15,16.85
37640,0.18,1.05,-0.09,-13.79,-5.92,17.03
37660,0.20,1.05,-0.09,-10.13,-9.16,19.47
37680,0.18,1.09,-0.12,-6.65,-11.90,26.92
37700,0.17,1.14,-0.13,-6.10,-14.71,32.78
37720,0.23,1.15,-0.13,-5.31,-16.05,40.53
37740,0.27,1.14,-0.15,-10.56,-11.23,48.83
37760,0.27,1.13,-0.18,-14.16,-10.62,55.66
37780,0.27,1.08,-0.17,-20.14,-11.05,60.79
37800,0.30,1.02,-0.13,-29.72,-12.94,65.31
37820,0.31,0.98,-0.08,-34.97,-15.20,67.50
37840,0.32,1.00,-0.06,-39.61,-15.93,70.07
37860,0.33,1.02,-0.01,-43.03,-16.05,78.37
37880,0.45,0.82,0.09,-46.33,-15.01,84.11
37900,0.55,0.64,0.08,-46.45,-9.03,77.09
37920,0.57,0.60,0.11,-43.52,-4.94,60.30
37940,0.59,0.57,0.18,-29.36,-2.38,38.82
37960,0.59,0.61,0.18,-20.02,-3.11,25.76
37980,0.61,0.62,0.17,-9.89,-3.36,14.95
38000,0.65,0.59,0.14,1.83,-0.06,-2.08
38020,0.65,0.53,0.17,8.91,3.17,-18.68
38040,0.62,0.58,0.17,18.19,6.16,-37.60
38060,0.48,0.79,0.13,28.69,7.69,-57.74
38080,0.44,0.94,0.04,30.52,5.13,-58.65
38100,0.46,0.92,-0.04,26.79,4.39,-54.32
38120,0.50,0.79,-0.08,18.01,8.30,-60.24
38140,0.50,0.57,0.03,17.03,11.29,-73.12
38160,0.32,0.81,0.04,16.05,17.46,-87.59
38180,0.20,1.14,0.11,19.71,4.09,-81.05
38200,0.26,1.18,-0.00,19.71,3.36,-65.67
38220,0.32,1.09,-0.01,23.56,3.72,-59.27
38240,0.41,0.79,0.03,27.53,13.92,-65.80
38260,0.59,0.81,-0.10,27.53,37.11,-93.75
38280,-0.88,2.40,-1.15,36.80,80.20,-110.53
38300,-0.04,1.36,0.16,13.55,-30.88,-18.68
38320,0.29,0.93,-0.04,-16.48,-2.50,-1.59
38340,0.24,0.97,-0.03,-3.11,-3.91,-11.60
38360,0.21,1.00,-0.04,3.30,5.37,-13.55
38380,0.19,1.00,-0.09,4.27,6.23,-17.40
38400,0.16,1.01,-0.07,3.23,5.37,-16.91
38420,0.16,1.00,-0.06,2.14,2.20,-14.04
38440,0.15,1.00,-0.07,3.23,-0.37,-11.66
38460,0.17,1.00,-0.09,-0.12,-0.92,-9.03
38480,0.16,1.01,-0.06,-2.62,-0.79,-8.36
38500,0.15,1.02,-0.04,-0.85,-0.12,-5.13
38520,0.15,1.01,-0.06,1.04,0.31,-3.36
38540,0.16,1.00,-0.07,1.16,-0.43,-1.65
38560,0.16,1.00,-0.08,1.77,-0.85,-0.49
38580,0.17,1.00,-0.09,1.59,-0.37,-0.55
38600,0.17,1.00,-0.08,0.61,-0.12,-1.10
38620,0.16,1.00,-0.07,-0.73,-0.12,-1.34
38640,0.16,1.00,-0.07,0.00,0.00,-1.34
38660,0.16,1.00,-0.07,0.43,-0.18,-1.59
38680,0.17,1.00,-0.08,0.37,-0.18,-2.20
38700,0.17,1.00,-0.08,-0.37,0.06,-1.77
38720,0.17,1.00,-0.08,-0.31,0.49,-1.83
38740,0.17,1.00,-0.08,-0.18,1.59,-1.77
38760,0.16,1.00,-0.08,-1.40,1.04,-1.28
38780,0.16,1.00,-0.08,-1.46,0.61,-0.37
38800,0.16,1.00,-0.08,-1.46,0.43,0.31
38820,0.16,1.01,-0.07,-1.53,0.79,1.53
38840,0.16,1.00,-0.07,-0.85,1.34,2.08
38860,0.17,1.00,-0.07,-0.67,1.77,2.44
38880,0.17,1.00,-0.07,-0.37,2.93,2.81
38900,0.17,1.00,-0.07,-0.18,4.21,3.42
38920,0.17,1.00,-0.08,0.37,5.25,3.85
38940,0.17,1.00,-0.08,0.31,6.04,4.64
38960,0.17,1.00,-0.08,0.55,6.96,5.19
38980,0.18,1.00,-0.08,0.43,7.63,5.92
39000,0.16,1.00,-0.08,-0.18,8.36,7.26
39020,0.13,1.01,-0.08,-2.56,6.90,12.76
39040,0.19,1.00,-0.09,-6.41,3.85,16.85
39060,0.17,1.01,-0.08,-7.57,1.04,16.78
39080,0.19,1.03,-0.05,-9.46,-0.67,18.55
39100,0.17,1.05,-0.06,-7.87,-1.95,20.32
39120,0.18,1.09,-0.07,-8.61,-4.09,30.27
39140,0.21,1.14,-0.10,-7.81,-9.58,40.89
39160,0.25,1.17,-0.06,-7.63,-9.16,47.00
39180,0.28,1.16,-0.11,-7.02,-5.43,52.06
39200,0.25,1.17,-0.20,-11.66,-5.55,61.04
39220,0.26,1.15,-0.19,-19.10,-9.34,68.48
39240,0.25,1.12,-0.16,-27.22,-13.31,75.13
39260,0.33,0.99,-0.07,-35.89,-19.84,82.46
39280,0.34,0.96,-0.03,-41.93,-18.98,83.31
39300,0.38,0.92,0.02,-46.45,-18.01,85.82
39320,0.50,0.77,0.11,-51.45,-13.12,85.27
39340,0.54,0.65,0.08,-48.16,-9.83,76.72
39360,0.57,0.65,0.13,-46.51,-9.28,65.25
39380,0.64,0.57,0.10,-40.53,-5.37,46.20
39400,0.66,0.52,0.16,-31.62,-6.23,33.69
39420,0.63,0.55,0.17,-24.41,-5.49,19.71
39440,0.66,0.53,0.22,-11.11,-3.72,1.95
39460,0.65,0.54,0.27,-2.14,-1.95,-11.96
39480,0.65,0.57,0.30,6.29,3.30,-26.25
39500,0.65,0.60,0.31,17.88,10.56,-48.95
39520,0.60,0.56,0.25,35.28,17.09,-65.25
39540,0.51,0.70,0.04,39.79,18.19,-77.33
39560,0.44,0.89,-0.04,43.09,12.63,-80.93
39580,0.43,0.95,-0.05,39.61,6.71,-80.99
39600,0.47,0.88,0.01,35.83,6.16,-84.05
39620,0.44,0.51,0.06,35.95,14.22,-94.42
39640,0.14,1.04,-0.09,24.23,14.95,-111.39
39660,0.09,1.48,0.02,20.87,3.42,-99.43
39680,0.13,1.43,0.05,26.73,-0.49,-71.23
39700,0.43,0.87,-0.05,35.46,9.03,-51.82
39720,0.48,0.86,-0.42,32.47,42.18,-69.58
39740,-0.41,1.71,-0.06,21.91,42.42,-67.69
39760,0.26,0.97,-0.11,-7.75,-4.03,-0.18
39780,0.26,0.92,-0.09,-8.91,-4.09,-3.66
39800,0.23,1.01,0.01,-3.42,-5.74,-12.39
39820,0.22,1.00,-0.07,6.59,5.86,-11.17
39840,0.18,1.01,-0.06,7.20,5.43,-14.16
39860,0.17,1.01,-0.05,6.47,2.99,-12.02
39880,0.18,1.00,-0.07,6.90,1.10,-9.52
39900,0.18,1.00,-0.08,3.91,-0.92,-7.69
39920,0.17,1.01,-0.07,1.83,0.31,-6.41
39940,0.17,1.01,-0.05,2.38,1.65,-3.91
39960,0.17,1.01,-0.06,5.13,5.25,-2.38
39980,0.17,1.01,-0.06,6.84,6.29,-0.43
40000,0.15,1.01,-0.07,7.93,6.77,1.59
40020,0.18,1.00,-0.09,8.36,5.86,3.72
40040,0.19,1.00,-0.11,7.45,6.71,3.85
40060,0.19,0.99,-0.09,6.84,7.87,2.81
40080,0.17,1.00,-0.09,8.30,10.56,3.72
40100,0.18,1.00,-0.09,9.46,11.05,5.62
40120,0.20,1.00,-0.11,10.99,12.15,6.71
40140,0.20,0.97,-0.13,11.11,13.67,5.68
40160,0.17,1.00,-0.12,11.78,13.43,4.21
40180,0.18,0.99,-0.14,10.25,11.90,7.20
40200,0.19,0.99,-0.13,7.57,9.22,9.34
40220,0.21,0.98,-0.14,8.24,9.28,8.91
40240,0.22,0.98,-0.15,8.06,8.54,6.84
40260,0.21,1.00,-0.13,10.25,9.03,5.68
40280,0.20,0.99,-0.17,9.64,8.85,5.37
40300,0.21,0.98,-0.17,7.87,7.02,5.92
40320,0.22,0.97,-0.18,5.98,6.10,4.94
40340,0.22,0.97,-0.18,4.39,5.74,4.76
40360,0.22,0.97,-0.18,2.20,5.74,4.21
40380,0.22,0.99,-0.16,1.04,4.70,3.42
40400,0.21,0.99,-0.16,2.20,3.72,4.27
40420,0.23,0.97,-0.18,3.05,3.48,5.00
40440,0.24,0.96,-0.19,1.77,3.60,4.64
40460,0.23,0.97,-0.19,-0.37,3.66,3.11
40480,0.22,0.98,-0.17,-1.89,3.11,2.99
40500,0.23,0.97,-0.18,-2.62,2.20,3.85
40520,0.24,0.97,-0.18,-4.64,1.59,3.17
40540,0.24,0.97,-0.17,-4.58,1.65,2.26
40560,0.24,0.97,-0.17,-3.78,1.89,1.22
40580,0.23,0.99,-0.16,-2.01,1.65,0.73
40600,0.23,0.98,-0.16,-1.16,1.10,1.22
40620,0.24,0.97,-0.17,-0.55,0.92,1.22
40640,0.24,0.97,-0.17,-0.49,1.28,0.79
40660,0.24,0.97,-0.17,-0.61,1.34,0.37
40680,0.24,0.98,-0.17,-1.04,1.04,0.61
40700,0.24,0.98,-0.17,-1.34,0.98,1.16
40720,0.24,0.97,-0.17,-1.59,1.04,1.10
40740,0.24,0.97,-0.17,-1.89,1.16,1.04
40760,0.24,0.97,-0.17,-2.01,1.40,0.43
40780,0.24,0.98,-0.16,-1.89,1.40,0.24
40800,0.24,0.98,-0.17,-1.40,1.46,0.67
40820,0.24,0.98,-0.17,-0.73,1.34,0.67