timestamp,accX,accY,accZ,gyrX,gyrY,gyrZ
0,0.22,0.99,-0.12,0.92,2.38,-0.79
20,0.21,1.00,-0.12,1.04,2.08,-0.55
40,0.21,1.00,-0.11,0.31,1.59,0.49
60,0.15,1.05,-0.09,-1.40,0.85,3.91
80,0.07,1.16,-0.05,-4.39,-2.32,15.20
100,0.06,1.32,-0.07,-9.46,-9.52,35.40
120,0.28,1.57,-0.17,-13.43,-14.65,72.51
140,0.08,1.54,-0.64,-16.11,-5.07,98.69
160,0.12,1.28,-0.57,-44.68,-19.65,116.82
180,0.27,0.80,-0.23,-80.26,-25.94,117.61
200,0.54,0.37,0.07,-83.31,-32.65,106.45
220,0.56,0.43,0.32,-67.87,-26.00,83.80
240,0.65,0.55,0.48,-32.71,-12.15,49.44
260,0.60,0.58,0.37,-15.69,-3.66,33.75
280,0.66,0.43,0.24,-2.20,1.65,18.37
300,0.64,0.41,0.04,5.07,12.51,-13.37
320,0.64,0.49,-0.01,19.17,10.25,-34.12
340,0.68,0.39,0.11,22.34,11.47,-57.98
360,0.66,0.24,0.08,26.12,17.21,-90.33
380,0.33,0.76,-0.16,11.05,10.19,-135.19
400,0.06,1.70,0.15,24.78,-0.49,-136.72
420,0.01,1.61,0.22,44.92,-1.28,-91.13
440,0.36,0.93,0.21,74.04,8.30,-32.17
460,0.51,0.34,-0.02,79.22,46.08,-41.32
480,0.66,0.18,-0.33,54.32,74.52,-84.90
500,-1.17,2.09,0.19,-3.11,126.77,-166.32
520,0.08,1.42,0.78,-7.93,-80.51,-1.10
540,0.41,0.74,-0.55,23.99,5.86,19.84
560,0.17,0.98,-0.18,-1.28,1.83,-6.90
580,0.18,1.00,-0.12,-4.21,7.45,-4.46
600,0.17,1.00,-0.13,-3.66,3.60,-8.30
620,0.17,1.00,-0.15,-2.56,-0.55,-8.85
640,0.17,0.99,-0.14,-1.10,-2.99,-9.28
660,0.14,1.01,-0.11,-0.06,-2.32,-9.83
680,0.15,1.00,-0.12,1.53,-0.92,-4.58
700,0.15,0.98,-0.17,1.83,1.83,-2.08
720,0.16,0.98,-0.16,-0.18,2.44,-2.01
740,0.15,0.99,-0.15,-2.56,3.48,-0.67
760,0.16,0.99,-0.16,-5.25,3.97,-0.06
780,0.13,1.01,-0.11,-6.84,5.13,0.98
800,0.11,1.00,-0.11,-6.41,5.49,4.39
820,0.12,1.07,-0.06,-7.20,2.01,24.90
840,0.04,1.11,-0.08,-18.86,-0.37,38.33
860,-0.08,1.35,-0.04,-26.25,-17.21,55.18
880,0.15,1.72,-0.09,-23.74,-34.42,91.25
900,-0.05,1.78,-0.78,-20.94,-5.62,112.24
920,0.05,1.28,-0.76,-42.54,-26.18,140.32
940,0.28,0.68,-0.29,-92.47,-33.26,142.46
960,0.59,0.13,0.15,-99.61,-22.58,138.92
980,0.72,0.01,0.42,-77.76,-7.81,107.60
1000,0.77,0.06,0.71,-26.37,-9.22,38.51
1020,0.76,0.23,0.63,7.32,10.19,0.24
1040,0.88,0.42,0.73,46.33,6.41,-40.22
1060,0.80,-0.07,0.62,99.79,40.71,-98.39
1080,0.26,-0.64,-0.53,60.85,77.94,-143.25
1100,-0.11,1.38,-1.07,13.43,73.43,-202.15
1120,-0.39,2.40,-0.98,0.49,-4.21,-142.15
1140,-0.03,2.10,0.37,-19.17,-45.65,-46.33
1160,0.20,1.26,0.10,9.83,-10.68,5.49
1180,0.52,0.56,-0.06,12.88,-0.49,8.42
1200,0.69,0.46,0.13,27.77,62.62,-50.78
1220,-0.42,1.72,-1.65,53.22,99.73,-88.44
1240,-0.82,1.69,0.49,39.61,2.99,-80.93
1260,0.18,0.97,-0.15,18.74,-7.32,7.63
1280,0.21,1.00,-0.10,15.14,-6.04,3.91
1300,0.20,0.99,-0.16,19.35,-0.55,2.75
1320,0.21,0.96,-0.20,7.45,3.91,3.66
1340,0.20,0.99,-0.16,0.92,1.40,0.12
1360,0.21,0.98,-0.16,-0.61,3.05,-1.83
1380,0.18,1.00,-0.13,0.49,2.26,-5.55
1400,0.17,1.00,-0.14,2.81,2.87,-3.91
1420,0.18,0.98,-0.17,2.08,5.49,-1.83
1440,0.18,0.98,-0.16,-2.38,6.41,-0.31
1460,0.18,0.99,-0.16,-4.15,6.41,0.37
1480,0.17,1.00,-0.13,-4.64,5.37,0.79
1500,0.11,1.02,-0.10,-3.72,0.85,7.69
1520,0.05,1.09,-0.05,-7.69,-3.42,22.58
1540,0.07,1.10,-0.10,-18.55,-10.07,35.28
1560,-0.07,1.49,-0.07,-32.96,-41.50,61.40
1580,0.09,2.13,-0.30,-15.87,-47.12,94.60
1600,-0.04,1.76,-0.82,-24.84,-28.14,133.79
1620,0.01,1.27,-0.78,-63.54,-40.95,156.86
1640,0.32,0.75,-0.02,-109.19,-40.71,168.82
1660,0.57,0.31,0.10,-96.92,-21.00,174.99
1680,0.74,0.22,0.26,-70.56,-23.01,145.26
1700,0.76,0.03,0.40,-28.14,-44.25,89.60
1720,0.69,0.06,0.42,2.56,-33.69,51.21
1740,0.74,-0.12,0.57,39.49,-36.50,23.99
1760,0.94,-0.45,0.44,43.82,-1.83,-28.75
1780,0.91,-0.14,0.16,22.83,37.23,-95.76
1800,0.76,-0.18,-0.05,36.56,45.23,-151.12
1820,0.25,0.93,-0.51,-14.10,47.79,-217.59
1840,0.02,1.97,0.12,33.20,18.86,-225.83
1860,-0.21,1.71,0.46,61.34,-11.66,-166.99
1880,0.02,0.95,0.55,90.94,23.13,-119.38
1900,0.31,3.50,-3.42,93.14,100.71,-130.98
1920,-1.40,2.42,0.96,38.33,-45.04,-66.53
1940,0.51,0.91,0.04,-0.85,-5.55,51.57
1960,0.40,0.67,-0.40,-8.48,29.05,25.76
1980,0.32,0.90,-0.06,-3.85,22.89,-0.43
2000,0.20,1.04,-0.11,10.13,11.29,-16.97
2020,0.17,1.02,-0.12,9.89,-0.55,-11.78
2040,0.19,1.00,-0.12,12.88,-1.59,-8.54
2060,0.21,0.99,-0.13,12.94,2.01,-5.92
2080,0.19,0.98,-0.18,11.41,5.00,-6.29
2100,0.19,0.97,-0.20,6.53,4.15,-5.49
2120,0.19,0.97,-0.19,0.67,2.81,-4.52
2140,0.16,1.00,-0.15,-4.94,3.97,-2.26
2160,0.17,1.01,-0.13,-6.77,4.15,0.49
2180,0.07,1.06,-0.07,-7.51,4.64,4.70
2200,0.01,1.24,-0.12,-14.71,-8.97,29.11
2220,0.05,1.45,-0.10,-26.31,-27.65,56.70
2240,0.20,1.70,-0.25,-15.56,-34.24,79.77
2260,0.02,1.77,-0.70,-28.93,-24.48,119.02
2280,0.02,1.42,-0.51,-54.14,-41.32,144.84
2300,0.09,1.03,-0.23,-81.05,-35.71,153.02
2320,0.44,0.50,-0.02,-90.76,-18.43,164.37
2340,0.65,0.37,0.04,-77.15,-6.10,139.10
2360,0.63,0.35,0.08,-58.90,-16.66,115.60
2380,0.77,0.26,0.41,-30.33,-41.69,72.75
2400,0.70,-0.09,0.37,11.84,-37.66,44.80
2420,0.73,-0.01,0.37,9.89,-15.14,13.67
2440,0.76,0.10,0.20,14.22,5.62,-20.26
2460,0.86,-0.02,0.01,19.47,24.78,-74.65
2480,0.90,-0.06,-0.20,0.67,20.81,-112.55
2500,0.20,0.56,-0.34,-8.67,35.10,-154.66
2520,0.54,1.23,0.73,46.14,-11.60,-174.32
2540,0.21,1.04,0.78,76.97,8.85,-171.57
2560,-0.04,0.80,0.26,91.80,34.91,-139.16
2580,0.11,1.45,-0.41,83.98,47.42,-118.84
2600,-0.24,2.60,-3.46,57.43,126.89,-118.90
2620,-0.62,2.21,1.02,5.13,-4.82,-74.28
2640,0.29,0.90,-0.24,15.38,-20.26,25.57
2660,0.33,0.83,-0.33,-0.61,14.71,20.81
2680,0.23,0.98,-0.11,-6.53,16.30,2.93
2700,0.21,1.02,-0.11,5.62,6.16,-3.23
2720,0.22,0.99,-0.13,9.70,3.97,-5.49
2740,0.20,1.00,-0.13,9.52,0.79,-8.00
2760,0.19,1.00,-0.14,7.57,2.93,-6.10
2780,0.20,0.98,-0.16,8.48,4.21,-4.09
2800,0.20,0.98,-0.17,6.04,4.27,-3.23
2820,0.21,0.97,-0.18,3.66,3.11,-3.36
2840,0.20,0.98,-0.17,-0.31,3.97,-3.85
2860,0.18,1.00,-0.15,-1.71,4.58,-3.17
2880,0.18,1.00,-0.13,-0.49,6.84,-0.67
2900,0.12,1.01,-0.15,3.11,9.95,3.54
2920,0.05,1.10,-0.05,0.06,4.39,10.50
2940,0.02,1.17,-0.07,-1.16,-5.07,30.40
2960,0.01,1.57,-0.19,-25.88,-27.16,66.59
2980,0.40,1.36,-0.17,-20.14,-38.27,86.18
3000,0.16,1.70,-0.75,-27.10,-14.95,94.54
3020,0.08,1.29,-0.68,-60.24,-37.41,126.22
3040,0.14,1.03,-0.19,-85.02,-41.81,128.05
3060,0.35,0.85,0.14,-98.02,-27.83,130.62
3080,0.64,0.43,0.28,-71.84,-16.24,135.13
3100,0.82,0.17,0.35,-53.59,-12.76,111.21
3120,0.77,0.19,0.28,-32.96,-29.11,79.59
3140,0.70,0.10,0.12,-8.73,-18.92,35.03
3160,0.68,0.21,0.04,-5.13,-12.57,8.67
3180,0.80,0.03,0.01,3.11,-9.03,-15.14
3200,0.85,-0.07,0.06,4.76,-4.82,-72.69
3220,0.65,-0.20,0.18,-8.30,6.77,-130.00
3240,-0.09,1.27,0.24,7.14,20.81,-195.19
3260,0.72,1.00,0.73,71.04,-11.29,-156.86
3280,-0.26,1.64,0.50,109.25,15.26,-166.81
3300,0.37,0.40,-0.04,132.14,22.95,-87.46
3320,0.36,0.30,-0.72,84.90,71.17,-109.44
3340,-1.96,2.35,0.15,25.15,229.92,-219.91
3360,-0.28,1.65,0.36,-37.35,-71.66,-3.72
3380,0.33,0.92,-0.06,-1.10,-21.12,57.07
3400,0.31,0.84,-0.25,6.90,27.04,8.42
3420,0.11,1.07,-0.04,4.58,9.83,-10.99
3440,0.22,1.02,-0.07,11.47,-0.85,-2.87
3460,0.19,0.99,-0.14,15.81,-0.06,-0.18
3480,0.20,0.97,-0.18,12.39,4.15,-0.79
3500,0.19,0.98,-0.17,6.77,4.15,-2.93
3520,0.18,0.98,-0.16,-0.31,1.83,-2.44
3540,0.19,0.98,-0.17,-2.44,2.56,-1.53
3560,0.18,1.00,-0.12,-4.15,2.38,-1.40
3580,0.19,0.99,-0.14,-3.36,6.41,0.18
3600,0.15,0.98,-0.13,-6.29,6.10,0.49
3620,0.05,1.07,-0.05,-6.29,1.46,6.90
3640,0.09,1.08,-0.10,-6.65,-5.80,30.58
3660,0.11,1.17,-0.08,-26.55,-11.47,46.14
3680,0.11,1.29,-0.11,-26.00,-15.75,55.73
3700,0.16,1.52,-0.21,-23.38,-21.06,68.66
3720,0.10,1.58,-0.72,-27.22,-11.54,99.12
3740,0.04,1.47,-0.57,-48.83,-24.54,118.53
3760,0.11,1.01,-0.31,-74.95,-30.76,127.62
3780,0.36,0.75,0.03,-99.98,-19.65,125.92
3800,0.68,0.44,0.22,-86.61,-18.01,132.81
3820,0.74,0.22,0.21,-66.59,5.86,108.83
3840,0.83,0.15,0.42,-32.71,-26.37,61.16
3860,0.71,0.10,0.44,7.57,-16.91,23.13
3880,0.73,-0.02,0.57,39.98,-20.32,2.01
3900,0.79,0.01,0.20,35.40,5.68,-52.43
3920,0.75,0.07,-0.13,20.51,28.93,-99.91
3940,0.63,0.00,-0.22,19.23,44.01,-130.68
3960,0.47,0.77,-0.23,21.67,28.02,-207.89
3980,0.06,1.87,0.12,65.25,-18.92,-164.55
4000,-0.07,1.66,0.44,58.96,-14.83,-90.21
4020,0.40,0.52,0.45,80.14,18.43,-71.29
4040,1.93,0.43,-1.07,74.52,93.38,-121.70
4060,-2.12,2.36,0.42,75.01,181.82,-174.93
4080,0.69,1.09,-0.28,1.83,-88.13,80.69
4100,0.46,0.70,-0.48,8.73,33.63,36.19
4120,0.16,1.01,-0.13,9.46,16.36,3.48
4140,0.25,1.00,-0.12,11.47,2.93,2.26
4160,0.21,0.96,-0.22,10.44,9.70,-3.78
4180,0.21,0.99,-0.17,3.36,3.05,-8.61
4200,0.21,0.96,-0.19,-0.06,5.43,-8.85
4220,0.19,0.99,-0.16,-4.09,2.44,-13.37
4240,0.18,1.00,-0.15,-1.89,3.23,-10.19
4260,0.19,0.99,-0.16,-2.38,2.93,-7.14
4280,0.18,0.98,-0.17,-3.54,5.62,-3.85
4300,0.17,1.00,-0.15,-5.31,6.35,-3.17
4320,0.16,1.01,-0.13,-4.76,6.10,-1.34
4340,0.09,1.03,-0.09,-3.11,2.93,3.72
4360,-0.00,1.13,-0.02,-3.72,-2.32,17.40
4380,0.03,1.20,-0.08,-15.75,-13.55,45.41
4400,0.07,1.45,-0.03,-20.69,-27.59,76.17
4420,0.04,1.71,-0.36,-16.24,-21.61,83.74
4440,0.02,1.62,-0.78,-20.39,-18.68,107.30
4460,0.05,1.37,-0.64,-57.62,-42.97,131.71
4480,0.28,0.77,-0.09,-83.25,-34.06,131.10
4500,0.59,0.34,0.09,-85.39,-21.55,134.28
4520,0.71,0.24,0.19,-71.84,-12.82,98.94
4540,0.66,0.21,0.07,-35.52,-16.42,64.58
4560,0.67,0.43,0.27,-14.47,-23.19,34.61
4580,0.70,0.34,0.40,8.61,-23.50,16.60
4600,0.69,0.31,0.24,12.27,-1.46,-18.98
4620,0.77,0.14,0.10,17.33,13.00,-44.74
4640,0.84,-0.05,0.04,20.39,25.33,-82.28
4660,0.64,-0.10,-0.34,-9.58,40.77,-143.31
4680,0.15,0.73,-0.27,-21.73,36.07,-213.99
4700,0.11,1.27,0.16,3.42,-3.60,-218.32
4720,-0.21,2.71,0.59,62.32,-12.15,-169.56
4740,-2.19,2.28,-0.84,139.10,66.71,-111.15
4760,0.23,1.23,-0.09,53.22,-68.05,37.35
4780,0.45,0.84,-0.30,8.54,28.26,31.37
4800,0.31,0.91,-0.12,1.46,43.27,1.77
4820,0.20,1.02,-0.03,13.67,33.39,-4.82
4840,0.18,1.01,-0.15,25.02,12.82,-7.75
4860,0.18,1.00,-0.15,18.55,1.53,-6.77
4880,0.20,1.00,-0.12,14.59,-1.22,-6.10
4900,0.19,0.99,-0.15,13.18,2.62,-4.70
4920,0.21,0.96,-0.21,8.79,3.85,-4.76
4940,0.21,0.95,-0.22,2.01,2.26,-6.10
4960,0.20,0.97,-0.19,-4.27,0.67,-7.93
4980,0.19,0.99,-0.15,-8.42,-0.61,-8.24
5000,0.18,1.00,-0.13,-7.32,0.67,-5.37
5020,0.18,1.00,-0.13,-5.92,2.69,-2.20
5040,0.18,1.00,-0.13,-1.95,6.53,1.28
5060,0.16,1.00,-0.13,0.24,8.06,2.44
5080,0.05,1.06,-0.04,0.92,5.74,7.93
5100,0.02,1.14,-0.12,-6.10,-7.20,38.51
5120,0.06,1.33,-0.09,-26.49,-19.47,53.89
5140,0.17,1.30,-0.14,-24.78,-27.71,70.43
5160,0.26,1.57,-0.53,-24.41,-11.29,88.32
5180,0.13,1.33,-0.83,-37.17,-17.09,109.07
5200,0.14,1.09,-0.59,-73.73,-32.04,114.14
5220,0.19,0.92,-0.15,-107.30,-37.66,108.64
5240,0.53,0.63,0.04,-106.93,-36.32,122.07
5260,0.68,0.55,0.25,-97.23,-23.80,112.55
5280,0.75,0.33,0.42,-50.72,-8.06,72.69
5300,0.67,0.20,0.45,-20.20,-23.62,37.96
5320,0.67,0.16,0.53,8.18,-16.42,15.81
5340,0.68,-0.00,0.50,33.69,-14.28,-23.99
5360,0.79,-0.17,0.22,20.75,12.82,-54.32
5380,0.66,-0.02,-0.11,10.56,33.57,-100.04
5400,0.51,0.04,-0.47,-0.92,35.34,-132.08
5420,0.44,1.84,0.28,52.43,1.16,-191.59
5440,0.02,1.50,0.52,79.35,-6.84,-157.04
5460,-0.11,1.02,0.39,89.36,3.42,-110.11
5480,0.28,1.17,-0.35,77.76,17.27,-95.95
5500,-1.18,2.53,-2.82,107.12,124.63,-110.53
5520,-0.24,1.80,0.98,13.31,-22.95,-23.62
5540,0.44,0.75,-0.27,1.59,28.63,20.87
5560,0.25,0.95,-0.11,8.73,35.64,-6.29
5580,0.17,1.04,-0.09,12.15,16.85,-13.98
5600,0.18,1.00,-0.14,11.41,4.52,-9.58
5620,0.17,1.01,-0.10,8.61,-3.30,-9.22
5640,0.18,0.99,-0.12,7.20,-0.98,-6.16
5660,0.19,1.00,-0.10,8.85,1.95,-3.72
5680,0.19,0.97,-0.18,5.80,1.83,-1.77
5700,0.20,0.97,-0.17,0.49,1.34,-2.08
5720,0.19,0.99,-0.14,-3.36,0.73,-2.99
5740,0.18,1.00,-0.13,-3.17,2.81,-1.04
5760,0.18,1.00,-0.12,-3.17,4.09,0.43
5780,0.12,1.00,-0.11,-2.26,4.03,2.75
5800,0.12,1.02,-0.13,-9.09,-1.22,16.17
5820,0.09,1.09,-0.08,-21.12,-4.70,28.56
5840,0.13,1.14,-0.03,-27.47,-10.13,41.69
5860,0.09,1.45,-0.18,-26.00,-23.99,62.13
5880,0.15,1.75,-0.24,-20.69,-27.83,73.85
5900,0.07,1.78,-0.54,-23.99,-18.25,99.49
5920,0.09,1.29,-0.46,-40.53,-26.06,130.98
5940,0.19,0.87,-0.18,-67.87,-29.66,133.12
5960,0.34,0.64,0.01,-88.38,-17.64,130.13
5980,0.68,0.30,0.09,-90.33,-4.27,125.67
6000,0.73,0.31,0.03,-72.14,-1.77,93.51
6020,0.76,0.24,0.26,-45.41,-34.67,57.86
6040,0.68,0.13,0.34,8.42,-31.07,24.23
6060,0.71,0.05,0.44,25.57,-24.35,-3.11
6080,0.74,0.14,0.39,22.34,-6.90,-38.82
6100,0.71,0.22,0.19,27.53,18.25,-91.92
6120,0.62,-0.02,-0.06,27.95,23.44,-122.92
6140,0.45,0.55,-0.20,16.17,34.91,-150.57
6160,0.15,1.32,0.07,51.15,-9.40,-172.61
6180,-0.05,1.29,0.23,53.28,11.96,-134.40
6200,0.20,0.55,0.25,60.91,6.29,-102.66
6220,1.00,1.69,-0.26,58.78,47.67,-135.38
6240,-1.39,2.27,1.39,61.89,-54.32,-95.21
6260,0.22,0.91,-0.50,-8.79,7.57,61.28
6280,0.34,0.81,-0.24,6.77,33.20,40.47
6300,0.19,1.02,-0.08,13.67,21.91,3.36
6320,0.21,1.00,-0.15,15.50,8.18,2.32
6340,0.22,0.99,-0.15,13.55,3.91,2.38
6360,0.23,0.96,-0.18,9.09,4.46,0.55
6380,0.22,0.98,-0.14,3.23,4.58,-2.56
6400,0.21,0.98,-0.15,2.01,4.82,-4.39
6420,0.22,0.97,-0.17,1.59,4.46,-4.33
6440,0.21,0.97,-0.17,-0.85,3.11,-5.68
6460,0.19,0.99,-0.15,-4.33,0.37,-6.29
6480,0.19,0.99,-0.14,-5.19,0.92,-4.03
6500,0.20,0.99,-0.14,-3.72,2.56,-2.32
6520,0.13,1.02,-0.09,-4.03,2.20,-0.73
6540,0.10,1.04,-0.07,-2.62,-2.99,10.44
6560,0.12,1.05,-0.14,-7.63,-12.39,25.51
6580,0.06,1.21,-0.11,-23.07,-19.71,39.79
6600,0.07,1.49,-0.17,-28.14,-30.03,68.12
6620,0.23,1.61,-0.31,-19.84,-32.41,83.62
6640,0.10,1.59,-0.73,-28.69,-26.79,108.03
6660,0.15,1.25,-0.65,-50.54,-41.44,125.43
6680,0.20,0.87,-0.07,-94.54,-42.24,122.62
6700,0.47,0.63,0.22,-99.18,-24.23,128.54
6720,0.69,0.50,0.26,-92.22,-12.63,123.29
6740,0.72,0.24,0.13,-70.37,-6.77,82.76
6760,0.80,0.21,0.30,-51.88,-32.47,47.97
6780,0.64,0.28,0.31,-16.78,-16.97,18.68
6800,0.53,0.01,0.28,31.37,-16.91,-4.39
6820,0.51,0.10,0.17,29.48,-2.20,-26.25
6840,0.77,0.05,0.15,28.02,8.48,-48.34
6860,1.02,-0.12,0.13,36.32,22.22,-120.61
6880,0.29,0.06,-0.30,21.48,36.87,-163.39
6900,0.08,1.40,-0.11,39.98,11.78,-228.09
6920,0.15,1.36,0.43,70.37,-11.47,-168.70
6940,-0.18,1.57,0.49,89.36,4.82,-132.93
6960,0.14,2.91,-1.66,131.29,73.67,-103.15
6980,-0.82,1.72,0.06,114.01,3.72,-12.88
7000,0.47,0.82,-0.03,-10.56,16.54,55.66
7020,0.22,0.94,-0.17,13.24,45.59,19.65
7040,0.24,0.93,-0.19,14.83,26.18,14.65
7060,0.22,0.99,-0.15,10.74,3.30,-0.12
7080,0.24,0.98,-0.16,8.97,1.53,-1.83
7100,0.21,0.99,-0.15,5.74,2.69,-3.48
7120,0.24,0.97,-0.16,0.43,5.55,-3.78
7140,0.23,0.97,-0.17,-0.24,6.53,-5.37
7160,0.21,0.98,-0.16,-0.49,5.25,-5.98
7180,0.19,0.99,-0.14,-1.59,2.56,-5.13
7200,0.19,0.99,-0.15,-2.75,0.55,-3.23
7220,0.17,1.01,-0.11,-5.74,0.06,0.67
7240,0.13,1.01,-0.14,-11.54,-1.16,5.98
7260,-0.00,1.15,-0.12,-26.55,-12.57,16.54
7280,0.10,1.27,-0.11,-47.00,-28.20,40.34
7300,0.23,1.60,-0.24,-38.70,-41.56,51.27
7320,0.11,1.83,-0.46,-31.13,-36.68,74.58
7340,0.06,1.50,-0.49,-41.38,-38.76,103.39
7360,0.11,1.21,-0.40,-85.69,-40.71,118.96
7380,0.32,0.96,-0.13,-104.92,-27.16,130.31
7400,0.50,0.87,0.06,-105.65,-24.23,133.79
7420,0.63,0.67,0.18,-88.07,-23.13,119.57
7440,0.54,0.42,0.15,-55.85,-21.85,102.11
7460,0.66,0.32,0.47,-32.71,-52.00,78.55
7480,0.63,0.09,0.42,4.76,-36.99,60.06
7500,0.60,-0.11,0.33,30.82,-25.63,29.54
7520,0.76,-0.14,0.34,36.74,-11.35,7.26
7540,0.86,-0.07,0.35,44.98,6.96,-27.28
7560,0.85,-0.02,0.23,56.70,26.86,-90.76
7580,0.42,0.20,-0.08,37.96,59.14,-119.32
7600,-0.09,1.29,0.04,63.05,50.78,-153.44
7620,0.57,0.92,0.28,86.30,14.71,-145.94
7640,-0.05,1.68,-0.34,77.27,35.10,-148.74
7660,0.06,1.50,-0.30,50.17,7.02,-92.22
7680,0.36,0.66,0.04,23.13,45.84,-80.69
7700,1.18,0.90,-0.11,40.83,97.35,-109.74
7720,-1.23,2.27,-0.13,71.23,190.43,-148.56
7740,-0.16,1.64,-0.15,21.36,-23.07,53.28
7760,0.48,0.64,-0.55,30.27,31.92,44.68
7780,0.28,0.92,-0.22,10.80,21.48,9.09
7800,0.20,1.03,-0.09,7.39,6.77,1.95
7820,0.25,0.96,-0.18,5.07,5.43,0.37
7840,0.25,0.99,-0.15,3.91,1.28,-3.23
7860,0.24,0.98,-0.16,2.50,1.95,-2.26
7880,0.24,0.97,-0.18,-1.53,1.77,-2.99
7900,0.23,0.98,-0.17,-5.80,0.37,-3.97
7920,0.23,0.99,-0.13,-6.65,-1.83,-3.36
7940,0.21,1.00,-0.14,-9.89,-3.36,0.00
7960,0.19,1.02,-0.13,-12.88,-4.76,2.87
7980,0.13,1.08,-0.14,-15.75,-7.08,8.36
8000,0.10,1.32,-0.14,-30.82,-25.21,32.84
8020,0.24,1.42,-0.20,-34.61,-36.74,47.30
8040,0.20,1.54,-0.43,-31.68,-30.15,64.58
8060,0.05,1.56,-0.47,-48.10,-37.17,103.33
8080,0.09,1.23,-0.25,-57.86,-44.19,123.54
8100,0.19,1.00,-0.13,-76.66,-40.95,133.12
8120,0.39,0.71,0.02,-77.09,-30.03,140.01
8140,0.52,0.76,0.21,-58.23,-18.86,129.58
8160,0.71,0.51,0.23,-38.02,-24.54,121.89
8180,0.63,0.30,0.12,-33.14,-44.62,82.95
8200,0.66,0.22,0.19,-26.31,-29.60,68.42
8220,0.70,0.19,0.29,-18.92,-31.07,49.01
8240,0.76,0.11,0.41,1.10,-18.07,17.70
8260,0.77,-0.00,0.46,33.14,-3.54,-15.99
8280,0.73,-0.30,0.17,59.08,15.26,-45.84
8300,0.73,-0.08,0.21,40.22,45.23,-78.06
8320,0.83,0.19,-0.07,38.88,54.26,-125.49
8340,0.35,0.72,-0.16,33.45,33.02,-166.14
8360,0.51,1.24,0.26,63.60,7.26,-195.43
8380,-0.02,1.68,0.24,70.31,-1.77,-158.02
8400,0.24,0.84,0.07,71.53,5.43,-97.53
8420,0.34,0.71,-0.04,55.54,48.40,-107.73
8440,-1.37,3.96,-4.00,56.52,196.96,-161.01
8460,-1.05,2.56,1.87,-36.74,-52.31,-79.10
8480,0.64,1.06,0.35,7.26,-76.29,59.14
8500,0.45,0.62,-0.59,25.88,36.50,21.97
8520,0.20,1.01,-0.12,4.76,19.17,-10.13
8540,0.18,1.07,-0.04,9.34,5.68,-10.01
8560,0.22,0.98,-0.14,11.23,3.66,-3.54
8580,0.21,0.99,-0.15,9.03,2.20,-3.17
8600,0.24,0.95,-0.20,4.52,5.92,-0.92
8620,0.23,0.98,-0.15,1.16,3.97,-4.58
8640,0.21,0.98,-0.18,1.16,4.03,-4.09
8660,0.21,0.98,-0.16,-2.38,1.28,-3.78
8680,0.17,1.00,-0.15,-4.70,1.22,-0.98
8700,0.12,1.05,-0.11,-8.61,-1.04,2.93
8720,0.16,1.05,-0.09,-11.11,-6.47,11.05
8740,0.06,1.23,-0.09,-10.25,-11.23,20.57
8760,0.05,1.49,-0.18,-17.70,-26.12,54.32
8780,0.22,1.49,-0.29,-20.26,-26.92,69.15
8800,0.18,1.50,-0.64,-23.62,-16.97,81.85
8820,0.08,1.29,-0.53,-51.94,-28.38,109.62
8840,0.19,1.06,-0.19,-70.92,-39.37,118.23
8860,0.32,0.91,-0.02,-82.64,-31.49,118.59
8880,0.54,0.57,0.07,-77.03,-15.26,118.04
8900,0.61,0.71,0.19,-71.11,-10.19,108.46
8920,0.72,0.50,0.23,-53.77,-12.51,100.52
8940,0.66,0.44,0.28,-30.15,-27.34,65.43
8960,0.69,0.26,0.19,-15.56,-24.29,52.31
8980,0.58,0.36,0.23,-15.32,-13.18,29.66
9000,0.63,0.24,0.12,3.11,-6.04,13.92
9020,0.78,0.21,0.13,14.95,12.57,-6.41
9040,0.79,0.25,0.25,31.31,14.71,-35.22
9060,0.74,0.21,0.12,46.51,26.73,-76.48
9080,0.52,0.54,-0.02,45.47,35.03,-111.02
9100,0.64,0.39,-0.20,37.17,31.49,-118.96
9120,0.34,0.42,-0.39,6.90,13.55,-161.56
9140,0.35,1.11,0.10,2.14,-6.65,-162.66
9160,0.12,1.35,0.53,49.74,-16.91,-150.82
9180,-0.05,1.36,0.48,73.67,8.12,-138.18
9200,1.00,1.51,-0.06,92.90,64.70,-109.62
9220,-0.99,1.82,-0.38,76.72,172.42,-124.15
9240,-0.11,1.39,0.12,-4.27,-22.16,4.88
9260,0.36,0.76,-0.40,25.76,31.07,21.42
9280,0.23,0.93,-0.20,8.24,19.35,5.74
9300,0.22,0.99,-0.15,2.62,2.08,-4.94
9320,0.20,1.00,-0.11,0.24,1.71,-5.98
9340,0.19,1.02,-0.10,0.55,-4.21,-7.26
9360,0.19,1.00,-0.13,3.97,-0.12,-3.97
9380,0.22,0.97,-0.16,4.94,1.22,-2.99
9400,0.22,0.96,-0.19,3.17,2.69,-3.72
9420,0.21,0.98,-0.16,0.24,1.28,-5.00
9440,0.20,0.99,-0.15,-1.77,0.98,-4.70
9460,0.16,1.00,-0.13,-2.81,2.01,-1.89
9480,0.14,1.04,-0.10,-4.94,0.37,2.93
9500,0.14,1.06,-0.09,-3.42,-3.17,15.26
9520,0.12,1.14,-0.14,-5.31,-6.41,24.05
9540,0.08,1.27,-0.08,-13.43,-14.77,39.18
9560,0.24,1.26,-0.06,-15.32,-25.51,57.07
9580,0.18,1.50,-0.48,-15.38,-18.98,79.16
9600,0.09,1.47,-0.50,-28.75,-23.32,100.95
9620,0.16,1.21,-0.39,-45.72,-30.58,120.30
9640,0.28,0.81,-0.08,-71.78,-22.40,120.54
9660,0.46,0.65,-0.00,-78.61,-11.96,112.85
9680,0.57,0.41,0.04,-74.10,-6.90,109.44
9700,0.69,0.41,0.23,-60.12,-6.04,77.21
9720,0.70,0.39,0.33,-39.86,-28.75,54.93
9740,0.70,0.36,0.36,-14.16,-24.84,32.10
9760,0.69,0.23,0.37,7.02,-16.66,0.55
9780,0.70,0.26,0.26,3.36,2.50,-24.29
9800,0.68,0.26,0.12,6.04,22.77,-47.91
9820,0.62,0.28,0.00,12.33,33.33,-84.59
9840,0.48,0.37,-0.19,12.76,35.03,-102.97
9860,0.34,1.06,-0.20,26.43,29.42,-137.27
9880,0.40,1.02,0.03,46.81,3.72,-130.68
9900,0.15,0.93,0.01,31.13,11.05,-128.11
9920,0.21,0.81,0.09,33.45,5.49,-117.43
9940,0.29,1.07,0.10,46.45,44.62,-138.98
9960,-1.31,2.26,0.33,120.42,150.51,-149.17
9980,0.28,1.15,-0.07,5.00,-38.88,23.74
10000,0.15,1.13,0.19,-8.00,4.94,51.57
10020,0.38,0.78,-0.37,10.13,34.24,20.69
10040,0.13,1.06,-0.05,2.38,19.29,-1.04
10060,0.20,1.01,-0.11,5.86,4.64,0.67
10080,0.22,0.99,-0.12,6.59,0.55,0.98
10100,0.23,0.98,-0.15,8.30,2.69,0.24
10120,0.22,0.98,-0.16,7.81,5.31,-0.98
10140,0.22,0.96,-0.19,1.83,3.72,-3.85
10160,0.21,0.98,-0.16,-2.56,2.14,-4.82
10180,0.21,0.99,-0.15,-2.81,1.22,-4.94
10200,0.20,1.00,-0.13,-2.01,2.08,-3.05
10220,0.18,1.00,-0.13,-2.26,2.87,-0.67
10240,0.17,1.00,-0.12,-2.08,3.42,2.32
10260,0.16,1.02,-0.10,1.04,1.83,11.84
10280,0.18,1.00,-0.16,-1.34,0.18,17.82
10300,0.18,1.02,-0.14,-8.12,-2.99,22.34
10320,0.17,1.07,-0.14,-16.85,-9.58,29.91
10340,0.16,1.17,-0.13,-21.67,-18.01,38.33
10360,0.22,1.34,-0.24,-25.15,-29.60,47.91
10380,0.25,1.59,-0.37,-29.24,-31.37,74.71
10400,0.06,1.63,-0.52,-40.77,-39.18,106.08
10420,0.04,1.37,-0.36,-53.89,-42.85,130.13
10440,0.13,1.09,-0.13,-69.34,-44.37,140.14
10460,0.48,0.72,0.14,-89.29,-29.24,150.94
10480,0.75,0.41,0.10,-75.50,-12.33,147.83
10500,0.79,0.24,0.14,-59.63,-7.32,116.82
10520,0.61,0.27,0.12,-37.29,-39.00,77.15
10540,0.71,0.19,0.14,-26.92,-39.98,62.62
10560,0.70,0.25,0.27,-8.06,-36.01,37.60
10580,0.69,0.22,0.40,38.82,-32.35,7.02
10600,0.76,0.12,0.52,60.06,-16.78,-13.31
10620,0.89,-0.05,0.62,75.93,-8.54,-44.43
10640,0.91,-0.22,0.25,54.93,46.94,-99.91
10660,0.57,0.00,-0.18,18.01,63.78,-133.67
10680,0.38,0.65,-0.51,2.62,50.23,-191.53
10700,0.24,1.54,-0.07,65.19,-4.46,-191.59
10720,-0.04,1.46,0.30,55.18,-6.90,-135.56
10740,0.18,0.87,0.15,60.06,4.76,-100.52
10760,0.28,1.01,-0.02,52.12,57.80,-122.01
10780,-1.29,2.99,-3.96,84.35,192.99,-143.68
10800,-1.34,2.13,1.21,-9.83,-17.40,-78.06
10820,0.45,1.01,0.15,6.47,-63.72,50.60
10840,0.38,0.75,-0.44,21.61,35.77,19.96
10860,0.18,1.02,-0.07,7.63,10.50,-4.09
10880,0.23,1.00,-0.13,11.05,2.14,-2.32
10900,0.21,1.00,-0.13,6.41,-0.85,-4.46
10920,0.22,0.99,-0.16,6.10,-0.55,-3.97
10940,0.23,0.97,-0.17,3.36,4.09,-1.89
10960,0.21,0.98,-0.17,0.85,2.01,-4.27
10980,0.20,0.98,-0.17,-1.53,0.85,-3.60
11000,0.20,0.99,-0.15,-3.78,-1.65,-2.38
11020,0.21,0.99,-0.14,-5.49,-1.16,1.46
11040,0.19,1.00,-0.13,-5.98,-0.43,2.81
11060,0.20,0.99,-0.16,-8.18,-1.83,5.43
11080,0.17,1.02,-0.14,-14.10,-7.20,11.54
11100,0.12,1.15,-0.13,-25.39,-15.99,24.96
11120,0.10,1.31,-0.18,-32.41,-26.98,39.43
11140,0.23,1.50,-0.29,-32.71,-36.80,58.84
11160,0.04,1.75,-0.51,-39.00,-30.46,83.19
11180,0.07,1.51,-0.40,-49.50,-41.14,115.30
11200,0.05,1.31,-0.24,-64.33,-40.65,138.43
11220,0.32,0.87,0.06,-87.22,-32.41,151.73
11240,0.66,0.55,0.13,-86.98,-18.49,156.37
11260,0.68,0.44,0.12,-74.77,-2.93,125.67
11280,0.56,0.29,0.08,-48.95,-10.93,91.67
11300,0.74,0.28,0.33,-36.19,-44.86,71.23
11320,0.65,0.26,0.35,-8.42,-31.74,46.57
11340,0.65,-0.00,0.33,28.20,-24.60,16.30
11360,0.69,-0.03,0.28,35.77,-6.59,-8.85
11380,0.80,-0.07,0.24,37.84,12.27,-35.71
11400,0.74,0.33,0.20,50.17,37.05,-86.85
11420,0.73,0.17,0.14,54.93,29.85,-111.82
11440,0.40,0.58,-0.04,48.52,33.75,-146.06
11460,0.29,1.03,-0.14,57.68,9.03,-174.74
11480,0.15,1.36,-0.08,51.94,2.01,-151.12
11500,-0.05,1.59,-0.15,35.52,1.53,-128.05
11520,0.18,1.32,0.16,29.60,23.93,-82.64
11540,0.37,1.02,0.10,38.02,48.77,-86.12
11560,0.41,1.52,-1.03,57.92,113.34,-91.00
11580,-0.73,1.70,-0.04,7.26,-18.62,-30.82
11600,0.29,1.05,-0.01,27.83,-7.20,18.92
11620,0.35,0.78,-0.44,31.37,34.91,26.98
11640,0.22,1.02,-0.08,14.16,15.32,5.62
11660,0.25,0.94,-0.24,13.92,10.99,4.46
11680,0.21,0.99,-0.15,6.96,4.58,0.79
11700,0.25,0.97,-0.17,5.25,1.83,0.43
11720,0.24,0.97,-0.18,1.34,3.23,-3.17
11740,0.23,0.97,-0.18,-1.16,2.32,-4.33
11760,0.24,0.96,-0.19,-3.97,1.34,-4.21
11780,0.23,0.98,-0.17,-8.24,0.24,-6.04
11800,0.21,0.99,-0.15,-9.89,-0.12,-5.31
11820,0.23,0.98,-0.15,-10.38,-1.16,-3.72
11840,0.20,0.99,-0.14,-9.95,-1.71,-3.05
11860,0.18,1.02,-0.11,-11.84,-4.46,-0.12
11880,0.14,1.05,-0.09,-13.18,-8.06,5.43
11900,0.13,1.15,-0.08,-19.41,-20.63,22.16
11920,0.17,1.32,-0.24,-24.54,-27.28,36.01
11940,0.13,1.71,-0.28,-30.21,-31.80,48.65
11960,0.07,1.71,-0.51,-35.95,-25.02,93.63
11980,0.04,1.51,-0.47,-53.34,-34.55,121.64
12000,0.07,1.16,-0.35,-73.79,-34.73,136.96
12020,0.28,0.94,-0.04,-100.28,-25.88,148.19
12040,0.72,0.45,0.16,-95.76,-12.08,146.42
12060,0.65,0.38,0.19,-77.51,5.07,118.96
12080,0.71,0.21,0.34,-60.61,-4.39,99.49
12100,0.71,0.35,0.42,-37.48,-29.17,60.97
12120,0.70,0.18,0.38,-2.32,-22.95,38.33
12140,0.71,0.06,0.38,14.16,-16.05,17.52
12160,0.72,0.06,0.20,21.30,7.14,-21.18
12180,0.77,0.08,0.11,24.60,23.86,-50.29
12200,0.73,0.17,0.14,39.61,26.43,-79.10
12220,0.55,0.28,0.10,48.71,23.74,-117.61
12240,0.57,0.83,0.09,63.42,20.81,-153.08
12260,0.45,0.74,0.10,78.61,5.68,-166.81
12280,0.02,1.28,-0.30,58.35,14.89,-150.70
12300,-0.01,1.63,-0.24,39.86,3.54,-125.24
12320,0.17,1.43,0.13,20.51,18.19,-95.28
12340,0.67,1.24,-0.51,62.56,98.75,-87.46
12360,-0.19,1.67,-0.25,61.95,100.65,-75.99
12380,0.02,1.42,0.49,-1.04,-22.28,0.12
12400,0.44,0.91,-0.09,29.42,32.41,31.07
12420,0.23,0.95,-0.19,17.40,24.60,6.96
12440,0.21,1.02,-0.09,16.54,6.16,-0.37
12460,0.24,0.96,-0.21,18.01,9.95,2.38
12480,0.25,0.97,-0.18,9.34,0.67,0.06
12500,0.26,0.96,-0.19,6.23,4.09,-1.10
12520,0.25,0.96,-0.18,3.05,3.97,-4.09
12540,0.24,0.96,-0.19,-1.10,1.71,-4.94
12560,0.23,0.98,-0.18,-4.15,0.18,-5.68
12580,0.23,0.98,-0.17,-6.65,-0.37,-5.25
12600,0.23,0.98,-0.17,-8.24,1.04,-4.58
12620,0.23,0.98,-0.16,-9.46,0.12,-4.33
12640,0.23,0.97,-0.16,-9.58,-0.31,-3.66
12660,0.20,1.00,-0.14,-11.72,-2.50,-3.66
12680,0.15,1.04,-0.10,-13.55,-5.19,0.24
12700,0.17,1.05,-0.10,-15.44,-10.31,7.81
12720,0.12,1.20,-0.10,-20.57,-20.08,21.55
12740,0.07,1.42,-0.25,-28.26,-31.49,36.87
12760,0.13,1.56,-0.30,-36.62,-31.13,46.94
12780,0.10,1.58,-0.56,-40.28,-26.37,80.63
12800,0.16,1.24,-0.36,-57.31,-31.19,97.60
12820,0.17,1.02,-0.17,-75.62,-31.68,102.72
12840,0.35,0.88,0.03,-91.55,-25.39,109.86
12860,0.54,0.61,0.11,-81.60,-11.47,102.11
12880,0.63,0.55,0.19,-75.87,-0.61,85.14
12900,0.63,0.51,0.19,-60.55,0.73,54.14
12920,0.57,0.55,0.19,-30.21,-3.36,45.53
12940,0.60,0.34,0.31,3.17,-17.21,27.71
12960,0.56,0.10,0.25,21.36,-12.63,14.53
12980,0.76,-0.00,0.17,5.37,7.32,-23.86
13000,0.67,0.15,0.06,4.64,19.41,-68.05
13020,0.47,0.44,-0.00,17.94,10.07,-102.05
13040,0.73,1.02,0.43,57.56,-11.78,-124.21
13060,0.34,1.05,0.42,85.69,2.87,-131.77
13080,0.21,0.77,0.15,78.74,-4.88,-106.20
13100,0.13,1.21,-0.33,55.24,20.63,-89.54
13120,0.29,1.00,0.25,51.21,23.68,-87.34
13140,1.19,1.40,-0.35,80.75,101.01,-94.36
13160,-1.16,2.07,1.21,15.75,-42.42,-83.86
13180,0.55,1.05,0.18,12.02,-62.19,75.01
13200,0.54,0.51,-0.68,30.40,50.90,42.54
13220,0.16,1.07,-0.04,11.35,6.04,-3.66
13240,0.28,0.93,-0.22,10.56,8.67,1.40
13260,0.20,1.01,-0.12,6.90,3.30,-4.70
13280,0.25,0.98,-0.17,7.32,0.98,-2.62
13300,0.26,0.95,-0.20,1.53,4.27,-4.09
13320,0.24,0.97,-0.17,-1.83,2.87,-7.69
13340,0.23,0.97,-0.17,-3.05,2.32,-7.51
13360,0.24,0.97,-0.16,-3.48,-0.79,-8.79
13380,0.21,1.00,-0.14,-4.39,-0.18,-8.18
13400,0.22,0.99,-0.14,-4.94,0.67,-5.19
13420,0.20,0.98,-0.15,-7.45,0.18,-2.38
13440,0.20,1.00,-0.13,-10.13,-2.44,-0.06
13460,0.21,0.99,-0.13,-10.50,-3.54,2.08
13480,0.16,1.05,-0.08,-13.55,-9.16,7.32
13500,0.12,1.10,-0.17,-16.85,-14.28,15.63
13520,0.07,1.31,-0.11,-30.03,-29.30,29.24
13540,0.16,1.53,-0.26,-32.29,-31.98,49.56
13560,0.05,1.66,-0.55,-34.61,-17.94,68.91
13580,0.12,1.35,-0.39,-44.31,-27.95,94.60
13600,0.18,1.07,-0.18,-74.40,-28.69,105.59
13620,0.36,0.80,0.05,-82.58,-31.68,109.74
13640,0.52,0.71,0.12,-75.56,-15.69,103.15
13660,0.59,0.69,0.16,-57.56,-4.94,88.93
13680,0.53,0.70,0.13,-37.90,-2.87,77.94
13700,0.60,0.52,0.19,-23.62,-17.46,71.78
13720,0.63,0.41,0.31,-9.89,-31.56,41.20
13740,0.64,0.25,0.21,-0.92,-12.02,28.87
13760,0.81,0.15,0.22,6.23,-2.81,6.04
13780,0.76,0.18,0.12,8.79,15.26,-21.42
13800,0.82,-0.02,-0.00,6.71,16.78,-85.02
13820,0.29,0.37,-0.09,-13.18,11.60,-131.23
13840,0.16,0.92,0.13,-3.97,-2.26,-135.62
13860,0.76,0.78,0.70,85.21,-32.53,-90.03
13880,0.07,1.03,0.51,77.94,7.93,-89.84
13900,0.14,1.25,-0.07,81.05,15.56,-109.92
13920,0.51,0.55,0.25,74.77,74.65,-98.75
13940,0.98,2.95,-3.76,107.12,204.16,-139.89
13960,-1.41,2.70,2.65,-14.53,-29.30,-153.44
13980,0.48,0.84,-0.25,31.25,-16.60,71.53
14000,0.43,0.64,-0.58,30.88,48.34,32.29
14020,0.17,1.03,-0.08,14.28,9.16,-2.69
14040,0.24,0.99,-0.16,12.45,8.42,1.40
14060,0.22,1.00,-0.13,13.31,1.65,1.04
14080,0.26,0.97,-0.18,12.94,-0.12,1.40
14100,0.25,0.96,-0.19,9.28,5.68,-1.04
14120,0.24,0.97,-0.19,3.42,2.75,-2.69
14140,0.24,0.96,-0.19,-0.79,1.53,-2.99
14160,0.23,0.98,-0.17,-4.58,-0.85,-4.52
14180,0.21,1.00,-0.15,-6.65,0.12,-3.66
14200,0.21,0.99,-0.15,-7.63,-0.18,-1.16
14220,0.21,0.99,-0.15,-8.97,-1.53,1.10
14240,0.20,1.02,-0.13,-11.78,-5.43,3.48
14260,0.18,1.06,-0.14,-13.79,-10.07,8.00
14280,0.13,1.16,-0.14,-18.62,-15.99,15.93
14300,0.18,1.57,-0.22,-34.73,-31.68,42.24
14320,0.01,1.75,-0.45,-40.34,-22.77,70.50
14340,0.03,1.61,-0.48,-45.90,-29.17,106.75
14360,0.12,1.15,-0.41,-78.19,-27.40,136.90
14380,0.35,0.90,-0.12,-106.14,-31.13,138.98
14400,0.53,0.69,0.01,-101.20,-22.46,133.48
14420,0.63,0.37,0.04,-60.42,-13.85,114.62
14440,0.59,0.33,0.25,-39.61,-23.62,97.35
14460,0.64,0.17,0.35,-15.20,-38.76,86.36
14480,0.75,0.09,0.41,3.60,-28.08,45.23
14500,0.80,0.12,0.51,18.98,-19.10,16.17
14520,0.81,0.13,0.54,27.34,-0.67,-16.54
14540,0.80,0.15,0.52,36.62,33.20,-61.71
14560,0.68,-0.05,0.17,48.58,38.64,-83.13
14580,0.50,0.14,-0.14,31.86,54.02,-122.31
14600,0.51,0.46,-0.39,23.56,45.47,-150.51
14620,0.28,1.09,-0.33,19.17,11.54,-181.52
14640,-0.02,1.95,-0.07,31.56,-6.41,-172.00
14660,0.03,1.37,0.38,48.95,-21.73,-115.17
14680,0.11,1.40,0.23,62.38,34.91,-105.16
14700,0.45,2.24,-2.14,91.49,123.17,-97.41
14720,-0.82,1.64,0.18,13.67,35.77,-64.64
14740,0.32,0.98,-0.05,13.85,0.12,22.34
14760,0.32,0.82,-0.31,22.16,40.28,28.44
14780,0.21,0.97,-0.14,11.41,15.56,4.82
14800,0.20,1.00,-0.13,7.87,2.50,1.34
14820,0.21,1.00,-0.11,7.45,1.77,2.56
14840,0.22,0.99,-0.14,9.64,0.49,1.95
14860,0.24,0.96,-0.18,6.16,5.55,1.46
14880,0.22,0.98,-0.16,3.11,4.88,-1.71
14900,0.22,0.98,-0.16,1.59,3.54,-1.95
14920,0.22,0.98,-0.15,-0.37,1.04,-2.32
14940,0.21,0.99,-0.15,-1.95,0.85,-2.08
14960,0.21,0.98,-0.15,-3.85,1.22,-1.34
14980,0.20,0.99,-0.15,-4.94,0.24,-0.31
15000,0.19,1.00,-0.13,-6.59,-2.08,0.79
15020,0.19,1.00,-0.12,-8.24,-4.21,2.44
15040,0.19,1.01,-0.12,-9.22,-6.35,5.13
15060,0.12,1.07,-0.10,-13.43,-10.80,12.45
15080,0.14,1.11,-0.11,-19.04,-17.58,24.29
15100,0.11,1.35,-0.24,-26.67,-28.20,37.05
15120,0.17,1.86,-0.32,-35.40,-37.84,71.35
15140,0.04,1.64,-0.46,-33.02,-26.25,103.64
15160,0.10,1.32,-0.38,-48.83,-29.97,129.52
15180,0.26,0.94,-0.10,-84.47,-24.66,130.43
15200,0.48,0.85,0.05,-94.73,-20.87,133.73
15220,0.69,0.68,0.08,-87.95,-3.97,128.54
15240,0.62,0.59,0.11,-63.72,-4.58,98.94
15260,0.61,0.28,0.18,-45.96,-19.10,85.69
15280,0.61,0.18,0.31,-32.17,-23.32,63.60
15300,0.64,0.09,0.34,-2.26,-23.86,37.90
15320,0.74,-0.03,0.35,17.64,-2.81,13.00
15340,0.74,-0.12,0.44,36.25,7.20,-15.93
15360,0.80,-0.03,0.33,43.15,35.22,-72.14
15380,0.65,0.35,0.18,69.82,37.29,-103.27
15400,0.53,0.51,0.12,85.08,53.89,-116.21
15420,0.69,0.67,0.11,96.74,32.47,-168.88
15440,0.18,0.65,-0.63,54.87,48.28,-158.94
15460,-0.10,1.47,-0.70,25.94,27.40,-152.40
15480,-0.13,1.92,-0.50,2.56,10.93,-133.67
15500,0.49,1.46,0.45,20.87,13.61,-80.38
15520,0.01,1.50,-1.42,57.37,97.84,-77.33
15540,-0.52,1.53,-0.15,27.83,38.76,-60.67
15560,0.29,1.02,0.01,5.55,-7.81,6.59
15580,0.27,0.93,-0.21,11.90,21.24,4.15
15600,0.21,0.98,-0.15,10.01,17.21,0.12
15620,0.20,0.98,-0.17,9.16,9.52,-1.10
15640,0.18,1.00,-0.14,7.45,5.92,-0.55
15660,0.20,0.99,-0.16,7.69,3.85,1.59
15680,0.23,0.97,-0.19,5.13,6.71,1.40
15700,0.21,0.97,-0.18,2.08,6.16,-1.10
15720,0.21,0.98,-0.18,-0.12,4.33,-1.65
15740,0.20,0.99,-0.16,-3.66,1.28,-1.83
15760,0.22,0.98,-0.16,-5.07,0.85,-1.89
15780,0.22,0.98,-0.16,-5.92,0.92,-2.20
15800,0.18,0.99,-0.15,-6.59,-15.01,-0.98
15820,0.15,1.04,-0.09,-8.42,-2.87,3.42
15840,0.14,1.05,-0.10,-8.00,-5.25,9.83
15860,0.13,1.12,-0.09,-11.17,-10.44,20.08
15880,0.07,1.41,-0.13,-21.91,-20.26,43.88
15900,0.05,1.70,-0.23,-24.78,-22.22,59.39
15920,0.14,1.66,-0.52,-19.84,-20.57,85.33
15940,0.13,1.31,-0.51,-41.32,-30.46,120.85
15960,0.11,1.02,-0.39,-63.60,-29.05,126.77
15980,0.20,1.00,-0.07,-88.68,-26.18,125.61
16000,0.66,0.63,0.21,-81.18,-22.40,141.78
16020,0.66,0.52,0.21,-65.25,1.16,125.37
16040,0.61,0.41,0.10,-47.85,-0.98,102.97
16060,0.64,0.34,0.27,-39.79,-14.77,66.47
16080,0.73,0.17,0.32,-16.36,-19.47,50.78
16100,0.74,0.13,0.39,0.61,-16.78,25.27
16120,0.75,0.15,0.39,28.14,6.35,-9.52
16140,0.75,0.01,0.34,36.93,23.13,-36.38
16160,0.67,0.04,0.20,35.22,48.40,-64.33
16180,0.66,0.11,0.04,31.25,64.70,-99.85
16200,0.42,0.13,-0.29,17.76,69.34,-128.97
16220,0.44,1.28,-0.52,7.87,65.12,-171.39
16240,0.13,1.21,-0.39,57.07,21.85,-154.54
16260,-0.00,1.34,-0.34,-2.14,8.67,-125.49
16280,0.10,1.49,0.14,9.46,-3.05,-112.00
16300,0.19,1.36,0.57,34.79,12.39,-101.93
16320,-0.69,1.94,-1.62,108.89,151.25,-109.80
16340,-0.63,1.57,0.35,17.58,-2.26,-41.14
16360,0.33,0.95,-0.14,13.37,3.05,35.71
16380,0.28,0.90,-0.24,10.13,19.23,8.79
16400,0.21,1.03,-0.08,8.85,6.04,-1.53
16420,0.25,0.94,-0.23,13.49,10.56,2.08
16440,0.22,1.00,-0.15,9.58,3.85,-2.50
16460,0.22,0.98,-0.19,10.25,8.00,-0.18
16480,0.23,0.95,-0.21,7.75,8.42,-0.06
16500,0.24,0.95,-0.21,3.36,7.02,-3.66
16520,0.22,0.96,-0.21,-0.61,3.17,-5.49
16540,0.21,0.98,-0.19,-2.87,0.18,-5.86
16560,0.21,0.98,-0.19,-2.99,-0.06,-4.70
16580,0.21,0.97,-0.20,-4.15,2.08,-3.54
16600,0.21,0.97,-0.20,-7.39,1.46,-3.23
16620,0.19,0.98,-0.19,-9.28,-1.10,-2.81
16640,0.13,1.04,-0.14,-11.90,-4.52,0.67
16660,0.17,1.02,-0.12,-12.76,-8.42,7.57
16680,0.14,1.09,-0.15,-15.38,-11.41,15.14
16700,0.11,1.31,-0.09,-26.92,-22.16,41.44
16720,0.30,1.39,-0.20,-21.24,-34.12,62.44
16740,0.20,1.60,-0.52,-19.41,-31.37,81.91
16760,0.07,1.34,-0.58,-38.21,-39.79,120.79
16780,0.11,1.11,-0.34,-62.44,-46.94,135.13
16800,0.34,0.87,-0.03,-80.93,-44.86,141.42
16820,0.60,0.45,0.10,-71.84,-23.93,129.76
16840,0.62,0.51,0.13,-61.52,-11.78,108.15
16860,0.59,0.39,0.01,-47.79,-16.11,93.75
16880,0.66,0.43,0.17,-36.68,-21.18,64.64
16900,0.69,0.41,0.21,-28.63,-28.63,48.10
16920,0.69,0.39,0.17,-16.05,-18.01,27.95
16940,0.70,0.41,0.20,0.00,-10.80,4.46
16960,0.75,0.21,0.24,10.50,-6.71,-10.38
16980,0.75,0.23,0.29,20.26,1.10,-33.94
17000,0.79,0.21,0.43,50.84,14.22,-78.49
17020,0.51,0.06,0.14,64.58,37.48,-106.20
17040,0.55,0.37,0.01,50.90,55.36,-129.58
17060,0.58,0.29,-0.37,49.68,21.36,-176.09
17080,0.34,0.85,-0.17,24.54,8.79,-187.93
17100,-0.40,1.92,-0.10,33.87,18.37,-195.43
17120,0.09,1.79,0.41,44.62,6.77,-146.36
17140,-0.49,1.70,-0.30,128.05,115.17,-97.23
17160,-0.12,1.33,0.04,11.54,-17.03,10.80
17180,0.49,0.85,-0.02,5.00,9.89,61.16
17200,0.43,0.73,-0.34,20.02,22.09,11.66
17220,0.29,0.89,-0.25,7.32,22.95,-4.88
17240,0.22,1.03,-0.13,8.79,11.78,-16.42
17260,0.18,1.04,-0.13,13.61,10.50,-10.13
17280,0.18,1.01,-0.17,12.15,6.59,-4.58
17300,0.24,0.97,-0.19,9.70,6.35,-0.31
17320,0.23,0.97,-0.18,11.60,6.53,-1.10
17340,0.24,0.95,-0.21,10.93,5.31,-1.95
17360,0.23,0.96,-0.22,7.57,5.00,-3.85
17380,0.22,0.96,-0.22,0.85,3.78,-4.94
17400,0.20,0.96,-0.23,-4.64,2.69,-5.13
17420,0.22,0.97,-0.20,-8.48,1.71,-5.00
17440,0.22,0.97,-0.20,-10.68,0.85,-5.49
17460,0.18,0.98,-0.19,-11.29,0.06,-4.88
17480,0.19,1.00,-0.16,-13.79,-2.81,-1.89
17500,0.18,1.02,-0.13,-14.53,-4.94,3.17
17520,0.14,1.06,-0.11,-14.95,-10.74,9.58
17540,0.15,1.12,-0.11,-15.93,-15.01,20.63
17560,0.17,1.21,-0.18,-21.91,-20.26,34.00
17580,0.11,1.55,-0.37,-27.22,-24.54,49.56
17600,0.10,1.54,-0.46,-25.27,-26.55,74.34
17620,0.10,1.43,-0.48,-34.36,-32.84,97.72
17640,0.11,1.20,-0.28,-54.32,-40.22,121.83
17660,0.22,1.06,-0.19,-73.00,-35.89,133.73
17680,0.41,0.89,-0.09,-83.62,-30.21,144.35
17700,0.65,0.52,0.08,-85.82,-16.30,138.79
17720,0.58,0.55,0.09,-78.80,-9.83,114.75
17740,0.69,0.36,0.28,-63.60,-31.31,95.89
17760,0.62,0.32,0.33,-54.20,-13.18,70.56
17780,0.68,0.26,0.40,-36.13,-4.64,49.93
17800,0.68,0.11,0.34,-15.14,3.78,34.36
17820,0.71,-0.01,0.27,2.26,8.36,2.38
17840,0.83,-0.08,0.16,16.85,14.89,-25.82
17860,0.79,-0.08,0.08,42.36,20.26,-63.17
17880,0.59,-0.02,0.00,66.71,27.59,-127.81
17900,0.99,0.53,0.31,86.85,10.19,-169.19
17920,0.14,0.57,0.20,96.07,26.55,-202.45
17940,-0.07,1.25,-0.18,85.33,41.75,-197.75
17960,-0.12,2.13,-0.16,46.57,41.93,-134.64
17980,-0.08,2.17,-0.36,51.33,50.23,-80.38
18000,0.24,1.51,-0.33,52.92,45.65,-24.66
18020,0.45,0.65,-0.38,33.94,41.14,-5.80
18040,0.56,0.45,-0.30,20.51,43.70,-33.02
18060,0.47,0.71,-0.62,11.96,60.79,-66.96
18080,-0.36,1.61,0.31,-2.50,8.18,-62.99
18100,0.10,1.20,0.05,22.16,-2.14,-13.43
18120,0.25,0.90,-0.29,27.83,10.31,6.23
18140,0.23,0.96,-0.21,14.59,9.40,0.18
18160,0.23,0.95,-0.24,12.08,9.28,1.40
18180,0.25,0.94,-0.25,8.91,5.49,0.24
18200,0.25,0.95,-0.25,2.75,4.09,-2.56
18220,0.23,0.96,-0.24,-2.20,4.46,-4.21
18240,0.22,0.98,-0.22,-5.07,4.21,-3.97
18260,0.22,0.97,-0.23,-8.48,2.32,-3.23
18280,0.23,0.96,-0.22,-8.24,1.59,-3.60
18300,0.22,0.97,-0.22,-10.44,0.37,-4.88
18320,0.21,0.97,-0.21,-12.39,-1.34,-5.86
18340,0.20,0.97,-0.20,-15.63,-5.86,-4.94
18360,0.17,1.01,-0.18,-18.37,-10.99,-2.50
18380,0.17,1.02,-0.14,-21.67,-13.79,2.26
18400,0.13,1.15,-0.17,-25.88,-18.92,15.50
18420,0.10,1.27,-0.20,-29.85,-27.34,28.63
18440,0.27,1.37,-0.29,-27.28,-42.11,46.63
18460,0.04,1.57,-0.56,-33.94,-31.56,74.52
18480,0.10,1.36,-0.44,-44.25,-44.25,97.72
18500,0.12,1.16,-0.24,-62.81,-46.08,108.58
18520,0.35,0.90,-0.02,-79.96,-29.05,124.15
18540,0.60,0.59,0.05,-81.18,-17.82,128.78
18560,0.59,0.53,0.07,-75.56,-4.52,106.26
18580,0.66,0.36,0.12,-52.98,-6.65,83.86
18600,0.62,0.35,0.25,-42.85,-20.02,60.12
18620,0.68,0.30,0.32,-25.09,-19.96,42.66
18640,0.65,0.25,0.32,7.32,-8.79,12.51
18660,0.72,0.17,0.40,22.28,-4.46,-6.53
18680,0.74,0.12,0.36,34.79,8.61,-34.48
18700,0.70,0.07,0.22,45.41,26.37,-84.72
18720,0.63,0.10,-0.17,36.80,32.23,-126.22
18740,0.55,0.37,-0.27,25.39,18.19,-165.95
18760,0.28,1.17,-0.07,36.07,11.23,-195.31
18780,-0.27,1.77,-0.15,32.65,13.61,-149.84
18800,0.29,1.01,0.58,53.71,-3.48,-105.59
18820,0.26,2.17,-0.32,89.05,79.77,-117.68
18840,-1.08,1.68,0.32,47.24,-0.85,-36.74
18860,0.29,0.99,-0.13,23.99,-10.44,47.24
18880,0.36,0.69,-0.59,36.44,44.92,41.56
18900,0.21,0.97,-0.21,20.14,23.99,-2.38
18920,0.19,1.01,-0.18,10.93,10.13,-4.09
18940,0.21,0.98,-0.18,7.02,10.01,0.31
18960,0.22,0.99,-0.18,8.00,5.00,1.28
18980,0.24,0.96,-0.21,8.61,6.10,2.38
19000,0.24,0.95,-0.22,7.20,6.23,1.89
19020,0.24,0.95,-0.22,3.36,4.15,-1.10
19040,0.24,0.96,-0.21,1.53,3.23,-2.87
19060,0.23,0.96,-0.23,-0.92,2.50,-4.03
19080,0.22,0.96,-0.23,-8.12,0.43,-5.13
19100,0.23,0.96,-0.22,-13.67,-1.53,-6.23
19120,0.21,0.98,-0.19,-17.52,-4.09,-7.69
19140,0.18,1.00,-0.16,-18.74,-6.84,-3.17
19160,0.19,1.01,-0.14,-18.07,-8.85,2.01
19180,0.10,1.09,-0.12,-18.49,-10.68,8.18
19200,0.12,1.13,-0.18,-23.80,-18.13,21.06
19220,0.00,1.49,-0.26,-32.84,-35.52,48.03
19240,0.25,1.58,-0.33,-29.36,-39.12,67.81
19260,0.15,1.46,-0.62,-29.05,-30.27,88.99
19280,0.20,1.12,-0.35,-56.40,-44.98,106.75
19300,0.21,0.95,-0.13,-75.20,-38.15,107.60
19320,0.43,0.83,0.06,-82.21,-33.08,113.71
19340,0.59,0.64,0.08,-75.56,-16.60,106.93
19360,0.64,0.53,0.11,-68.66,-17.40,90.21
19380,0.62,0.38,0.00,-60.42,-18.13,71.53
19400,0.67,0.43,0.28,-34.00,-19.90,40.10
19420,0.66,0.29,0.38,-1.95,-24.11,18.92
19440,0.61,0.22,0.40,20.08,-14.77,-0.24
19460,0.62,0.08,0.43,34.18,-1.28,-27.47
19480,0.60,0.00,0.24,28.69,21.91,-54.44
19500,0.64,0.25,0.17,26.98,42.36,-82.28
19520,0.69,0.22,0.07,48.58,46.88,-132.02
19540,0.52,0.94,-0.10,50.78,47.55,-170.47
19560,0.03,0.88,-0.18,70.43,26.67,-179.32
19580,-0.17,1.62,-0.31,41.50,32.96,-143.74
19600,0.54,1.61,-0.02,36.87,0.85,-80.32
19620,-0.50,2.31,-0.98,67.26,76.66,-78.00
19640,-0.33,1.47,-0.04,45.10,16.60,-20.20
19660,0.42,0.83,-0.13,11.23,25.27,36.25
19680,0.43,0.76,-0.23,18.49,41.56,16.78
19700,0.21,1.02,-0.16,19.71,30.94,-7.08
19720,0.22,0.98,-0.17,17.46,11.41,-2.75
19740,0.21,1.00,-0.15,16.54,8.12,-2.50
19760,0.19,1.01,-0.15,15.01,6.65,-0.43
19780,0.26,0.94,-0.22,11.41,9.89,2.69
19800,0.25,0.94,-0.22,7.51,9.22,-0.37
19820,0.24,0.96,-0.21,2.14,4.33,-3.30
19840,0.23,0.98,-0.18,-1.83,0.12,-4.52
19860,0.22,0.98,-0.18,-2.62,-0.43,-3.66
19880,0.22,0.98,-0.18,-4.46,-0.06,-1.89
19900,0.22,0.99,-0.16,-6.35,1.71,1.22
19920,0.19,1.01,-0.15,-7.81,-0.98,3.48
19940,0.23,0.98,-0.17,-7.81,-2.99,7.02
19960,0.18,1.02,-0.17,-10.56,-6.53,12.51
19980,0.17,1.10,-0.13,-19.17,-12.08,22.95
20000,0.21,1.15,-0.23,-23.32,-17.52,33.08
20020,0.20,1.37,-0.30,-27.89,-31.31,57.07
20040,0.11,1.64,-0.55,-34.36,-32.65,71.41
20060,0.04,1.53,-0.49,-46.26,-41.38,97.84
20080,0.11,1.28,-0.32,-61.28,-49.07,120.73
20100,0.19,1.05,-0.04,-89.42,-47.79,135.86
20120,0.54,0.86,0.13,-89.42,-40.65,149.41
20140,0.64,0.68,0.16,-76.48,-14.77,140.08
20160,0.67,0.48,0.11,-61.77,-12.08,116.09
20180,0.70,0.35,0.20,-58.72,-33.26,90.15
20200,0.69,0.32,0.21,-40.10,-20.94,69.52
20220,0.65,0.17,0.21,-6.77,-30.58,38.70
20240,0.70,0.08,0.21,0.67,-28.63,25.02
20260,0.73,0.06,0.16,14.34,-16.97,8.61
20280,0.70,0.11,0.30,44.37,-11.90,-20.20
20300,0.69,0.13,0.40,77.33,-8.91,-39.18
20320,0.64,-0.06,0.23,100.22,6.10,-65.43
20340,0.76,0.15,0.39,87.28,31.92,-109.19
20360,0.72,0.46,-0.05,55.97,56.70,-152.47
20380,0.40,0.68,-0.44,39.98,46.69,-207.95
20400,0.04,1.23,-0.20,43.52,37.84,-207.70
20420,-0.28,1.68,-0.12,33.02,29.05,-158.75
20440,0.18,1.54,0.31,38.39,12.88,-124.88
20460,0.31,2.11,-0.55,56.46,75.26,-111.45
20480,-0.74,1.66,0.29,26.43,22.46,-38.15
20500,0.28,1.00,-0.04,22.64,-3.48,29.05
20520,0.46,0.71,-0.35,35.40,32.41,28.99
20540,0.24,0.99,-0.14,17.52,8.79,0.85
20560,0.26,0.97,-0.20,15.38,6.10,-0.61
20580,0.21,1.00,-0.17,12.33,8.24,-1.89
20600,0.23,0.96,-0.23,9.58,3.54,0.92
20620,0.26,0.93,-0.23,5.37,3.85,0.06
20640,0.23,0.97,-0.21,0.79,1.59,-3.23
20660,0.21,0.97,-0.21,-4.33,-1.46,-3.30
20680,0.22,0.98,-0.18,-6.96,-2.75,-1.53
20700,0.22,0.98,-0.19,-7.51,-2.69,-0.31
20720,0.22,0.97,-0.18,-11.35,-4.46,1.46
20740,0.22,0.98,-0.20,-14.53,-4.94,2.44
20760,0.21,1.01,-0.18,-17.46,-6.04,3.48
20780,0.19,1.06,-0.14,-19.65,-9.89,11.66
20800,0.19,1.12,-0.17,-20.81,-13.73,19.71
20820,0.18,1.16,-0.23,-21.97,-22.03,28.08
20840,0.16,1.42,-0.37,-28.56,-27.95,45.29
20860,0.04,1.64,-0.46,-38.15,-31.37,72.39
20880,0.07,1.47,-0.32,-49.07,-44.31,103.52
20900,0.18,1.13,-0.24,-58.23,-45.35,122.50
20920,0.34,0.78,-0.15,-84.41,-28.14,126.59
20940,0.52,0.66,-0.10,-93.32,-18.68,125.00
20960,0.56,0.65,-0.04,-87.46,-8.97,110.90
20980,0.51,0.57,0.00,-64.33,-14.47,94.24
21000,0.59,0.47,0.21,-51.15,-41.02,82.28
21020,0.66,0.49,0.31,-43.76,-40.10,73.30
21040,0.71,0.33,0.35,-20.45,-29.85,46.81
21060,0.72,0.25,0.40,-4.33,-19.17,27.28
21080,0.73,0.08,0.37,15.81,-9.52,9.03
21100,0.67,0.16,0.46,38.64,5.98,-25.70
21120,0.77,-0.12,0.30,64.39,13.06,-49.19
21140,0.70,-0.04,0.20,48.71,45.90,-78.67
21160,0.52,0.32,-0.06,47.00,53.65,-140.50
21180,0.70,0.71,-0.11,59.63,19.59,-155.94
21200,0.56,0.97,0.09,67.38,7.81,-175.90
21220,0.16,0.86,0.03,54.38,9.40,-154.72
21240,-0.12,1.57,-0.30,51.88,34.48,-147.40
21260,0.19,1.42,0.18,46.26,29.91,-128.36
21280,-0.47,3.07,-3.33,103.45,144.53,-117.07
21300,-0.15,1.61,0.65,6.65,-36.80,-13.67
21320,0.49,0.93,-0.04,27.40,9.34,66.28
21340,0.48,0.62,-0.51,33.14,41.69,38.33
21360,0.19,1.01,-0.16,9.34,21.61,-1.77
21380,0.24,0.99,-0.15,11.90,10.68,-0.06
21400,0.21,1.00,-0.16,14.83,5.49,-1.53
21420,0.22,0.98,-0.22,13.06,3.23,2.87
21440,0.28,0.92,-0.25,6.41,5.31,3.66
21460,0.25,0.95,-0.22,1.53,5.31,-0.37
21480,0.24,0.96,-0.22,-4.64,0.73,-3.60
21500,0.24,0.98,-0.18,-7.93,-1.65,-4.39
21520,0.24,0.98,-0.18,-7.69,-1.16,-3.54
21540,0.24,0.97,-0.19,-8.36,-0.61,-3.54
21560,0.22,0.98,-0.18,-9.28,-1.16,-3.85
21580,0.23,0.98,-0.18,-10.99,-2.56,-3.05
21600,0.21,0.99,-0.17,-12.39,-3.60,-0.18
21620,0.18,1.04,-0.13,-13.98,-6.71,4.21
21640,0.15,1.14,-0.14,-13.31,-8.67,11.29
21660,0.15,1.25,-0.14,-16.54,-20.20,31.25
21680,0.18,1.43,-0.31,-18.13,-26.49,45.17
21700,0.10,1.65,-0.55,-24.17,-25.39,64.03
21720,-0.02,1.73,-0.58,-41.38,-36.01,94.06
21740,-0.02,1.36,-0.40,-70.31,-54.08,139.04
21760,0.01,1.32,-0.19,-97.47,-53.83,152.71
21780,0.45,1.00,-0.01,-108.89,-51.15,186.83
21800,0.70,0.62,-0.06,-104.19,-28.63,177.61
21820,0.65,0.49,-0.04,-89.23,-29.24,148.07
21840,0.85,0.11,0.33,-77.51,-72.39,115.78
21860,0.87,-0.16,0.49,-42.79,-46.33,57.43
21880,0.78,-0.31,0.50,4.52,-29.42,20.63
21900,0.59,-0.25,0.49,44.74,-18.49,-7.45
21920,0.59,-0.21,0.54,53.53,-12.08,-24.90
21940,0.36,0.02,0.48,50.35,1.10,-35.52
21960,0.52,0.02,0.44,53.71,11.35,-46.20
21980,0.91,0.23,0.46,53.16,45.10,-73.18
22000,0.77,0.28,0.01,104.74,74.46,-126.65
22020,0.72,0.64,-0.32,88.20,82.76,-169.68
22040,0.37,0.70,-0.80,61.46,77.09,-217.90
22060,-0.09,0.71,-0.64,17.33,60.79,-201.90
22080,-0.21,2.02,-0.58,-0.43,49.68,-195.68
22100,-0.44,2.54,0.57,5.43,-6.47,-86.12
22120,0.02,1.69,-0.22,58.59,51.21,-27.04
22140,0.34,0.91,-0.44,39.49,31.92,7.63
22160,0.30,0.88,-0.35,16.85,31.56,-4.76
22180,0.19,1.00,-0.22,16.78,42.11,-14.53
22200,0.12,1.10,-0.11,15.20,15.26,-15.75
22220,0.19,1.02,-0.10,14.47,6.41,-4.64
22240,0.22,0.97,-0.20,7.87,2.75,-0.49
22260,0.24,0.99,-0.16,5.13,2.62,0.49
22280,0.22,0.98,-0.17,5.55,5.80,2.14
22300,0.24,0.97,-0.17,5.07,3.66,3.91
22320,0.23,0.98,-0.17,5.92,5.62,5.00
22340,0.22,0.99,-0.16,5.86,5.37,6.96
22360,0.23,0.96,-0.20,4.46,4.82,11.35
22380,0.26,0.95,-0.21,-1.04,3.11,11.05
22400,0.25,0.99,-0.18,-4.82,2.44,9.64
22420,0.23,1.00,-0.16,-6.77,1.89,12.70
22440,0.27,0.97,-0.19,-8.42,0.85,13.92
22460,0.30,0.94,-0.21,-10.07,-0.61,12.15
22480,0.27,0.98,-0.20,-13.55,-4.58,7.32
22500,0.19,1.14,-0.21,-21.36,-11.17,8.97
22520,0.22,1.10,-0.23,-30.09,-20.26,15.69
22540,0.14,1.37,-0.37,-38.94,-25.27,39.79
22560,0.13,1.50,-0.56,-55.42,-32.04,50.42
22580,0.09,1.53,-0.45,-76.48,-43.76,73.73
22600,-0.06,1.47,-0.36,-89.60,-46.14,103.58
22620,0.14,1.27,-0.05,-121.15,-56.15,144.90
22640,0.37,1.07,0.04,-122.99,-43.09,152.95
22660,0.67,0.84,0.22,-99.85,-17.21,154.72
22680,0.57,0.49,0.31,-57.68,-7.26,135.13
22700,0.63,0.30,0.36,-48.22,-3.36,116.94
22720,0.76,0.22,0.57,-41.44,-41.50,89.42
22740,0.98,-0.35,0.36,-21.12,-31.07,49.68
22760,0.82,-0.16,0.44,-27.16,-15.87,5.43
22780,0.71,0.02,0.34,-4.09,9.09,-24.05
22800,0.59,0.04,0.30,16.11,28.81,-43.95
22820,0.64,0.05,0.35,25.02,35.28,-56.52
22840,0.62,0.15,0.43,41.44,39.61,-73.97
22860,0.66,0.15,0.39,74.46,44.80,-108.52
22880,0.56,0.13,0.06,77.94,57.62,-143.92
22900,0.47,0.35,-0.28,72.63,55.73,-192.44
22920,0.75,1.27,-0.26,77.27,15.50,-230.22
22940,-0.39,1.87,-0.37,73.18,19.17,-207.15
22960,-0.42,1.96,-0.16,40.59,7.32,-146.30
22980,0.18,2.26,-0.18,63.84,13.18,-93.75
23000,-0.10,1.48,-0.12,47.91,-27.47,-3.36
23020,0.50,0.76,-0.22,15.81,15.56,20.26
23040,0.30,0.91,-0.25,18.98,45.41,-6.04
23060,0.23,0.98,-0.19,7.14,21.00,-11.72
23080,0.19,0.99,-0.18,0.61,14.40,-14.04
23100,0.12,1.06,-0.05,-1.83,-0.43,-14.16
23120,0.21,0.99,-0.13,3.91,1.53,-2.20
23140,0.21,0.98,-0.15,4.94,1.95,-2.75
23160,0.21,0.98,-0.15,5.43,1.22,-4.46
23180,0.20,0.98,-0.17,5.37,0.43,-5.00
23200,0.20,0.98,-0.17,3.30,-1.83,-4.88
23220,0.19,0.97,-0.21,-0.12,-2.14,-4.15
23240,0.21,0.98,-0.13,-5.31,0.67,-2.20
23260,0.21,0.99,-0.15,-5.25,2.62,-1.04
23280,0.20,1.00,-0.13,-4.15,4.82,-0.98
23300,0.20,0.99,-0.14,0.06,4.58,0.00
23320,0.20,0.99,-0.16,1.28,3.60,1.04
23340,0.20,0.98,-0.16,1.34,2.01,1.65
23360,0.21,0.98,-0.16,0.67,1.77,1.59
23380,0.20,0.99,-0.15,-0.92,1.71,0.79
23400,0.21,0.99,-0.15,-0.85,1.71,1.16
23420,0.21,0.99,-0.14,0.24,0.92,1.22
23440,0.21,0.99,-0.15,2.56,1.53,2.01
23460,0.22,0.98,-0.16,4.39,3.17,2.08
23480,0.22,0.98,-0.17,4.46,3.72,2.08
23500,0.21,0.98,-0.16,3.36,4.76,2.08
23520,0.22,0.98,-0.17,2.62,4.64,2.14
23540,0.22,0.98,-0.17,1.77,4.64,2.01
23560,0.22,0.97,-0.18,2.08,4.03,1.71
23580,0.21,0.97,-0.18,1.95,4.21,0.92
23600,0.20,0.99,-0.17,1.16,2.87,0.85
23620,0.21,0.98,-0.17,0.49,2.26,1.77
23640,0.22,0.97,-0.18,0.24,2.08,1.71
23660,0.22,0.97,-0.18,-0.37,2.01,1.04
23680,0.22,0.97,-0.18,-0.31,1.95,0.43
23700,0.22,0.98,-0.18,-0.55,1.71,0.37
23720,0.21,0.98,-0.17,-0.61,1.34,0.31
23740,0.22,0.98,-0.18,-0.43,1.16,0.43
23760,0.22,0.97,-0.18,-1.16,1.16,0.06
23780,0.22,0.97,-0.18,-1.65,1.28,-0.49
23800,0.22,0.98,-0.18,-2.38,1.22,-0.79
23820,0.22,0.98,-0.18,-2.81,1.28,-0.73
23840,0.21,0.98,-0.17,-3.17,1.16,-0.79
23860,0.22,0.97,-0.18,-2.44,1.22,-0.12