timestamp,accX,accY,accZ,gyrX,gyrY,gyrZ
0,0.17,1.00,-0.14,-2.01,-2.44,2.26
20,0.18,0.99,-0.14,-3.54,-3.85,3.60
40,0.19,0.98,-0.15,-4.39,-2.93,3.85
60,0.19,0.99,-0.13,-4.64,-2.75,2.81
80,0.19,0.99,-0.13,-3.17,-2.14,2.20
100,0.20,0.97,-0.15,-2.62,-1.59,1.40
120,0.19,0.98,-0.14,-4.27,-0.24,-0.92
140,0.17,1.01,-0.12,-5.19,-0.85,-1.16
160,0.17,1.00,-0.12,-4.52,-1.83,0.92
180,0.17,1.01,-0.11,-4.82,-2.01,2.38
200,0.18,1.00,-0.11,-3.36,-1.53,4.39
220,0.21,0.98,-0.14,-3.05,-0.67,4.39
240,0.20,0.98,-0.13,-3.91,0.18,2.93
260,0.17,1.01,-0.11,-4.46,-1.34,4.94
280,0.17,1.03,-0.10,-4.94,-2.50,10.31
300,0.20,1.02,-0.09,-3.91,-3.30,14.47
320,0.20,1.03,-0.10,-0.79,-1.04,16.60
340,0.22,0.98,-0.13,2.69,-0.12,16.24
360,0.23,0.97,-0.15,2.26,-0.49,15.32
380,0.18,1.07,-0.20,-0.85,-1.34,15.63
400,0.19,1.14,-0.13,-3.54,-6.84,26.43
420,0.17,1.19,-0.19,-3.60,-4.39,33.33
440,0.17,1.21,-0.23,-4.70,-8.00,43.76
460,0.19,1.20,-0.18,-13.43,-13.55,60.91
480,0.21,1.21,-0.19,-17.64,-14.89,70.31
500,0.21,1.17,-0.13,-19.96,-19.29,78.86
520,0.34,0.93,-0.08,-23.74,-18.62,88.81
540,0.37,0.92,-0.09,-24.78,-17.76,83.68
560,0.39,0.89,-0.04,-27.95,-17.46,83.80
580,0.44,0.90,0.04,-24.35,-30.94,81.85
600,0.53,0.80,0.08,-22.71,-36.44,82.03
620,0.58,0.77,0.08,-20.20,-37.41,72.75
640,0.62,0.70,0.07,-17.33,-40.28,61.16
660,0.64,0.62,0.08,-13.49,-31.19,48.34
680,0.63,0.56,0.06,-8.85,-26.49,39.06
700,0.65,0.58,0.10,-8.06,-12.94,27.16
720,0.68,0.49,0.04,-10.13,5.43,20.81
740,0.67,0.50,0.03,-6.96,9.77,5.62
760,0.67,0.49,-0.02,-3.85,18.80,-3.72
780,0.69,0.55,0.08,4.09,6.77,-30.03
800,0.65,0.62,0.19,12.08,4.58,-42.66
820,0.58,0.81,0.16,14.59,14.89,-52.67
840,0.66,0.74,0.13,19.96,21.85,-55.11
860,0.64,0.59,0.04,21.67,31.92,-68.60
880,0.41,0.60,-0.13,25.57,37.48,-80.63
900,0.44,0.78,-0.18,16.85,26.18,-78.55
920,0.35,1.14,-0.15,12.57,26.92,-77.82
940,0.37,1.13,-0.13,11.78,15.87,-72.20
960,0.47,0.99,0.13,8.61,8.67,-72.08
980,0.42,0.73,0.06,12.70,28.69,-74.52
1000,0.08,1.30,-0.04,17.21,38.64,-75.74
1020,0.25,1.15,-0.23,16.48,16.24,-43.52
1040,0.25,1.18,-0.21,16.30,9.40,-37.35
1060,0.29,1.11,-0.20,10.62,7.75,-29.91
1080,0.41,0.83,-0.04,3.91,16.05,-35.40
1100,0.27,0.97,-0.22,0.31,37.84,-51.51
1120,-0.04,1.41,-0.47,-7.39,31.62,-48.95
1140,0.06,1.39,-0.00,-10.50,-2.87,-12.39
1160,0.25,1.01,-0.06,0.18,-2.87,1.34
1180,0.28,0.91,-0.12,2.26,2.32,-0.85
1200,0.31,0.88,-0.13,-0.67,5.74,-8.54
1220,0.35,0.83,-0.19,-5.13,13.67,-24.90
1240,0.15,1.02,-0.13,-5.68,19.53,-35.52
1260,-0.01,1.19,0.00,-0.85,5.43,-24.48
1280,0.21,1.02,-0.09,-0.43,-7.75,0.67
1300,0.22,0.99,-0.10,-2.87,-3.42,-0.55
1320,0.22,0.98,-0.11,-1.34,0.00,-0.73
1340,0.23,0.98,-0.11,-2.08,0.37,-2.50
1360,0.24,0.97,-0.12,-2.81,2.20,-5.19
1380,0.22,0.98,-0.13,-3.60,6.96,-8.42
1400,0.12,1.04,-0.06,-1.71,5.68,-7.69
1420,0.18,1.02,-0.07,-0.18,-0.92,-0.67
1440,0.20,0.99,-0.11,-0.37,0.12,1.28
1460,0.20,0.99,-0.10,0.67,1.28,0.06
1480,0.21,0.99,-0.11,1.83,2.08,-0.24
1500,0.22,0.98,-0.12,2.38,4.03,-1.53
1520,0.21,0.98,-0.12,2.20,8.48,-5.00
1540,0.12,1.04,-0.08,2.20,6.16,-2.75
1560,0.19,0.99,-0.12,2.14,0.43,1.89
1580,0.19,0.99,-0.12,0.31,1.59,2.08
1600,0.20,0.98,-0.13,-2.32,0.85,0.98
1620,0.19,0.99,-0.12,-4.70,0.92,0.43
1640,0.15,1.02,-0.10,-5.68,-0.12,1.40
1660,0.14,1.03,-0.09,-8.48,-3.17,7.20
1680,0.15,1.05,-0.10,-9.95,-6.84,13.67
1700,0.16,1.08,-0.08,-10.86,-9.22,21.73
1720,0.16,1.12,-0.14,-8.97,-9.58,31.74
1740,0.22,1.15,-0.19,-6.35,-13.85,37.84
1760,0.19,1.28,-0.18,-7.57,-13.43,42.24
1780,0.18,1.24,-0.14,-10.99,-14.53,58.17
1800,0.24,1.13,-0.17,-16.42,-16.54,67.93
1820,0.28,1.03,-0.20,-24.96,-15.26,71.04
1840,0.26,1.04,-0.12,-33.87,-18.55,72.94
1860,0.28,1.03,-0.04,-36.87,-19.47,76.78
1880,0.37,0.88,-0.01,-39.92,-20.26,82.34
1900,0.36,0.93,-0.02,-43.40,-16.36,81.91
1920,0.49,0.73,-0.02,-47.61,-16.66,84.17
1940,0.54,0.68,0.01,-47.36,-17.40,77.03
1960,0.63,0.59,0.10,-44.62,-18.43,62.50
1980,0.62,0.54,0.14,-32.84,-12.88,49.07
2000,0.66,0.52,0.22,-24.72,-12.08,35.52
2020,0.69,0.55,0.24,-15.20,-6.71,19.78
2040,0.71,0.52,0.30,2.69,-2.14,-4.15
2060,0.68,0.54,0.27,9.95,3.85,-20.81
2080,0.60,0.73,0.16,15.44,10.13,-35.40
2100,0.59,0.79,0.08,22.22,10.44,-45.65
2120,0.60,0.75,0.07,24.84,11.72,-52.98
2140,0.59,0.64,-0.00,25.15,14.34,-60.55
2160,0.46,0.78,-0.07,16.54,13.43,-72.45
2180,0.36,1.08,0.07,18.07,10.56,-75.93
2200,0.36,1.13,0.19,21.18,3.66,-66.10
2220,0.47,0.76,0.16,30.21,9.70,-63.17
2240,0.44,0.63,-0.06,25.45,21.97,-71.11
2260,0.20,1.08,-0.15,18.07,25.45,-81.91
2280,0.20,1.13,0.05,18.92,5.13,-72.02
2300,0.21,1.11,0.03,24.17,14.65,-58.41
2320,0.35,0.92,0.08,29.42,16.42,-58.53
2340,0.43,0.99,-0.11,36.19,56.15,-83.86
2360,-0.18,1.43,-0.20,52.00,30.70,-70.56
2380,0.04,1.08,-0.20,28.32,6.90,-12.27
2400,0.21,0.98,-0.19,-2.81,-3.60,-3.85
2420,0.20,1.01,-0.03,-10.99,2.50,-6.59
2440,0.23,1.00,-0.06,-4.94,0.98,-9.22
2460,0.22,0.98,-0.11,0.12,5.92,-12.21
2480,0.15,1.00,-0.11,1.34,4.09,-16.42
2500,0.16,1.00,-0.10,-2.20,-1.46,-11.84
2520,0.17,1.01,-0.08,-4.88,-3.48,-7.75
2540,0.19,1.01,-0.06,-3.91,-3.30,-5.37
2560,0.18,1.01,-0.07,-0.67,-2.01,-4.82
2580,0.17,1.01,-0.08,2.14,-0.06,-3.97
2600,0.17,1.00,-0.10,1.34,0.31,-0.43
2620,0.18,1.00,-0.10,0.18,-0.31,1.04
2640,0.19,0.99,-0.11,-0.31,-0.12,1.22
2660,0.22,1.00,-0.10,-0.92,0.61,-0.12
2680,0.18,1.00,-0.09,-0.85,1.10,-0.61
2700,0.18,1.00,-0.10,-0.85,0.98,-0.67
2720,0.19,1.00,-0.10,-1.46,0.98,-1.34
2740,0.18,1.00,-0.09,-1.65,1.28,-1.71
2760,0.12,1.03,-0.07,-1.16,-0.06,-0.06
2780,0.15,1.02,-0.07,-1.28,-6.41,6.29
2800,0.21,0.99,-0.10,-3.91,-4.94,7.57
2820,0.20,0.98,-0.12,-4.70,-2.50,4.76
2840,0.20,0.99,-0.10,-6.04,-2.99,2.75
2860,0.20,1.00,-0.09,-6.59,-1.10,2.26
2880,0.21,1.00,-0.08,-6.10,-0.55,2.08
2900,0.21,0.99,-0.09,-5.07,0.49,1.16
2920,0.20,1.01,-0.06,-3.78,1.71,-0.92
2940,0.19,1.00,-0.07,0.31,3.48,0.24
2960,0.20,0.99,-0.08,0.79,3.97,0.92
2980,0.19,1.00,-0.08,-1.22,2.69,1.22
3000,0.18,1.00,-0.08,-2.56,1.65,2.01
3020,0.18,1.01,-0.08,-4.15,0.85,2.87
3040,0.19,1.01,-0.08,-8.06,-0.85,5.25
3060,0.19,1.02,-0.07,-8.73,-0.67,7.69
3080,0.18,1.03,-0.07,-10.25,-1.22,11.60
3100,0.18,1.05,-0.07,-10.93,-2.56,18.86
3120,0.18,1.10,-0.08,-8.06,-3.78,22.89
3140,0.14,1.17,-0.11,-5.31,-5.37,28.75
3160,0.19,1.23,-0.09,-4.94,-6.96,41.99
3180,0.21,1.17,-0.18,-8.18,-3.48,48.77
3200,0.22,1.15,-0.18,-13.79,-7.02,55.42
3220,0.23,1.14,-0.15,-21.48,-12.33,63.54
3240,0.27,1.08,-0.04,-26.98,-14.40,69.89
3260,0.26,1.10,0.01,-27.95,-13.73,74.22
3280,0.34,0.95,0.05,-27.59,-15.14,80.99
3300,0.37,0.91,0.01,-28.93,-8.48,79.77
3320,0.42,0.87,0.02,-30.46,-8.97,79.16
3340,0.48,0.79,0.05,-30.09,-9.40,77.09
3360,0.59,0.65,0.05,-32.17,-11.35,69.64
3380,0.63,0.54,0.09,-31.19,-10.93,58.90
3400,0.66,0.47,0.09,-25.57,-5.68,43.70
3420,0.69,0.49,0.16,-12.70,-3.17,15.87
3440,0.72,0.48,0.23,-1.77,-2.93,-0.12
3460,0.72,0.42,0.28,7.63,1.71,-21.97
3480,0.61,0.64,0.23,22.71,10.74,-50.23
3500,0.55,0.76,0.18,31.92,12.33,-62.68
3520,0.44,0.93,0.08,41.08,12.51,-68.05
3540,0.44,0.99,-0.07,40.65,9.34,-59.39
3560,0.55,0.72,-0.16,33.51,8.79,-57.37
3580,0.53,0.46,-0.19,22.89,16.72,-68.24
3600,0.33,0.89,-0.11,8.97,16.54,-85.94
3620,0.21,1.33,0.17,16.24,-0.55,-67.14
3640,0.28,1.11,0.10,23.13,0.73,-49.74
3660,0.36,0.94,-0.01,25.33,25.57,-48.40
3680,0.40,0.62,-0.16,19.90,21.18,-59.45
3700,0.20,0.96,-0.19,11.11,38.15,-72.88
3720,0.12,1.31,-0.08,9.34,14.83,-69.09
3740,0.22,1.25,-0.15,10.68,12.57,-37.54
3760,0.18,1.12,-0.24,12.08,15.32,-30.52
3780,0.34,0.93,-0.17,4.52,10.93,-26.79
3800,0.24,1.11,0.05,4.64,18.74,-34.48
3820,0.11,1.13,-0.04,9.58,19.23,-28.99
3840,0.14,1.06,-0.05,10.44,6.23,-22.52
3860,0.16,1.00,-0.11,2.75,10.74,-11.72
3880,0.18,1.00,-0.10,1.83,6.41,-11.23
3900,0.18,1.00,-0.09,0.79,3.17,-10.01
3920,0.16,1.00,-0.10,0.73,3.48,-9.03
3940,0.16,1.00,-0.10,0.37,2.81,-7.87
3960,0.16,1.00,-0.10,0.37,2.50,-6.90
3980,0.16,1.00,-0.10,-0.18,1.53,-4.58
4000,0.15,1.01,-0.09,0.37,1.10,-3.36
4020,0.15,1.00,-0.10,0.37,1.16,-1.65
4040,0.16,1.00,-0.10,0.61,0.98,-0.49
4060,0.16,1.00,-0.11,0.67,0.73,-0.24
4080,0.17,1.00,-0.11,0.18,0.79,0.12
4100,0.17,1.00,-0.11,-0.12,0.98,-0.06
4120,0.16,1.00,-0.11,-0.43,1.22,-0.12
4140,0.16,1.00,-0.11,-0.55,1.04,-0.06
4160,0.16,1.00,-0.11,-0.55,0.67,0.06
4180,0.17,1.00,-0.11,-0.55,0.49,0.31
4200,0.17,1.00,-0.11,-0.37,0.49,-0.06
4220,0.17,1.00,-0.11,-0.49,0.98,-0.24
4240,0.16,1.00,-0.11,-0.85,1.34,-0.43
4260,0.16,1.00,-0.11,-0.61,1.22,-0.18
4280,0.17,1.00,-0.11,-0.49,0.98,0.06
4300,0.16,1.00,-0.11,-0.49,0.85,0.24
4320,0.16,1.00,-0.11,-0.31,0.43,0.85
4340,0.15,1.00,-0.10,-0.43,0.31,1.34
4360,0.17,0.97,-0.11,-0.85,-0.79,2.26
4380,0.17,1.00,-0.11,-1.22,-0.37,2.14
4400,0.17,1.00,-0.11,-1.40,-0.43,2.08
4420,0.16,1.00,-0.10,-3.66,-1.16,2.93
4440,0.15,1.01,-0.10,-4.82,-2.99,6.90
4460,0.19,0.99,-0.11,-6.59,-3.85,9.64
4480,0.18,1.00,-0.10,-8.18,-2.81,9.58
4500,0.17,1.03,-0.08,-8.85,-3.11,11.47
4520,0.19,1.02,-0.07,-7.63,-2.32,15.32
4540,0.16,1.05,-0.07,-5.62,0.06,19.17
4560,0.20,1.05,-0.11,-2.08,-0.37,27.65
4580,0.18,1.09,-0.10,-0.18,-0.73,29.17
4600,0.20,1.10,-0.09,-0.18,-6.96,35.95
4620,0.28,1.08,-0.10,-4.88,-8.12,44.62
4640,0.24,1.07,-0.24,-4.09,-4.15,47.30
4660,0.26,1.06,-0.22,-10.38,-9.70,50.42
4680,0.27,1.07,-0.14,-19.23,-15.38,52.80
4700,0.29,1.04,-0.09,-22.46,-17.40,54.99
4720,0.32,1.00,-0.03,-22.89,-18.01,56.58
4740,0.37,0.91,-0.02,-23.07,-15.69,58.23
4760,0.40,0.87,-0.00,-23.07,-13.06,56.46
4780,0.42,0.86,-0.02,-22.95,-10.99,52.55
4800,0.46,0.81,0.03,-23.50,-11.41,47.06
4820,0.50,0.78,0.03,-22.40,-9.52,41.14
4840,0.50,0.79,0.03,-21.00,-8.30,36.07
4860,0.52,0.75,0.04,-18.55,-6.71,28.32
4880,0.55,0.73,0.06,-15.69,-6.71,21.79
4900,0.55,0.75,0.06,-13.31,-5.37,14.95
4920,0.56,0.74,0.06,-11.11,-4.52,5.49
4940,0.57,0.75,0.07,-7.08,-1.59,-0.92
4960,0.57,0.74,0.11,-3.97,-0.43,-9.09
4980,0.60,0.66,0.11,-0.67,1.59,-19.04
5000,0.57,0.68,0.07,3.60,6.71,-39.73
5020,0.54,0.69,0.06,6.90,8.91,-51.33
5040,0.43,0.91,0.10,10.93,10.13,-59.33
5060,0.40,0.98,0.13,21.36,4.76,-54.87
5080,0.41,0.87,0.05,25.57,6.35,-52.06
5100,0.45,0.68,-0.05,24.17,8.12,-54.08
5120,0.39,0.82,-0.14,10.38,15.56,-73.36
5140,0.14,1.20,-0.01,5.98,12.27,-78.00
5160,0.14,1.30,0.11,9.83,1.16,-63.78
5180,0.34,0.91,0.03,25.76,7.20,-50.11
5200,0.39,0.85,-0.13,25.63,18.49,-59.57
5220,0.23,1.27,-0.18,16.97,30.52,-71.59
5240,-0.45,1.65,-0.46,32.78,4.15,-42.36
5260,0.12,1.06,-0.20,15.99,11.60,-8.91
5280,0.22,0.98,-0.16,1.59,4.94,-6.77
5300,0.20,1.00,-0.08,-4.15,12.70,-9.16
5320,0.16,1.03,-0.01,-0.18,5.68,-8.18
5340,0.20,1.00,-0.06,5.55,2.81,-5.37
5360,0.21,0.98,-0.11,6.23,3.54,-4.76
5380,0.21,0.98,-0.12,1.53,3.23,-7.26
5400,0.20,0.99,-0.10,-0.98,2.44,-8.54
5420,0.20,1.00,-0.07,-1.10,2.44,-9.34
5440,0.17,1.01,-0.06,1.53,3.85,-9.09
5460,0.16,1.01,-0.08,2.56,3.36,-6.59
5480,0.17,1.00,-0.09,1.40,1.46,-3.17
5500,0.19,1.00,-0.09,-1.04,0.00,-0.92
5520,0.19,1.00,-0.09,-1.65,0.37,-1.10
5540,0.19,1.00,-0.08,-1.46,0.43,-1.59
5560,0.19,1.00,-0.09,-0.67,1.04,-2.26
5580,0.19,1.00,-0.09,-0.24,1.16,-2.26
5600,0.18,1.00,-0.09,0.31,1.77,-2.62
5620,0.18,1.00,-0.08,-0.49,0.79,-1.22
5640,0.18,1.00,-0.09,-0.49,0.85,-0.55
5660,0.18,1.00,-0.09,-0.18,0.37,0.00
5680,0.18,1.00,-0.08,-0.12,0.06,0.55
5700,0.18,1.00,-0.09,0.00,0.00,1.22
5720,0.19,1.00,-0.09,0.00,0.18,0.98
5740,0.19,0.99,-0.10,-0.43,0.67,0.43
5760,0.19,1.00,-0.09,-0.49,0.85,0.06
5780,0.17,1.00,-0.08,-0.49,0.92,0.06
5800,0.19,1.00,-0.09,-0.31,0.00,1.10
5820,0.19,1.00,-0.10,-0.55,0.67,0.79
5840,0.19,0.99,-0.10,-0.55,0.43,0.49
5860,0.18,1.00,-0.09,-0.79,1.16,0.18
5880,0.18,1.00,-0.09,-0.73,0.55,1.46
5900,0.19,1.00,-0.10,-0.98,0.37,1.83
5920,0.19,1.00,-0.09,-1.34,0.37,1.95
5940,0.19,1.00,-0.09,-0.67,0.55,2.08
5960,0.19,1.00,-0.09,-0.43,0.61,2.38
5980,0.18,1.00,-0.09,-0.18,0.73,2.87
6000,0.18,1.00,-0.09,-0.73,-0.61,5.92
6020,0.17,1.03,-0.09,-2.50,-0.79,8.48
6040,0.19,1.02,-0.09,-3.91,-2.20,13.24
6060,0.20,1.01,-0.09,-5.07,-0.24,17.70
6080,0.19,1.05,-0.09,-4.46,-0.92,22.28
6100,0.20,1.03,-0.12,-2.69,-1.65,27.16
6120,0.23,1.03,-0.13,-4.09,-2.32,28.93
6140,0.23,1.09,-0.15,-6.65,-3.85,30.09
6160,0.26,1.06,-0.12,-8.61,-4.58,32.59
6180,0.22,1.14,-0.15,-10.07,-2.69,39.61
6200,0.26,1.08,-0.13,-12.94,-6.29,46.45
6220,0.26,1.08,-0.12,-17.09,-7.51,50.23
6240,0.30,1.03,-0.12,-21.91,-9.03,52.12
6260,0.32,0.99,-0.08,-26.31,-11.05,55.11
6280,0.33,1.00,-0.08,-30.03,-9.40,55.97
6300,0.33,0.98,-0.02,-32.17,-11.35,59.57
6320,0.35,1.02,-0.07,-37.11,-6.04,67.63
6340,0.33,1.07,-0.08,-39.79,-4.76,75.01
6360,0.43,0.89,-0.00,-47.42,-6.59,82.52
6380,0.58,0.58,0.04,-53.10,-5.74,74.95
6400,0.67,0.49,0.11,-51.70,-6.29,60.85
6420,0.69,0.50,0.16,-44.25,-3.85,40.83
6440,0.71,0.44,0.26,-26.67,-5.92,10.38
6460,0.72,0.41,0.27,-14.83,-4.27,-7.81
6480,0.69,0.41,0.33,-2.14,0.49,-30.21
6500,0.63,0.65,0.31,22.64,4.82,-53.47
6520,0.51,0.91,0.25,36.19,3.17,-60.30
6540,0.51,0.93,0.13,44.49,4.88,-62.44
6560,0.52,0.73,0.08,49.38,7.08,-70.62
6580,0.44,0.61,-0.01,55.18,16.66,-80.57
6600,0.21,1.27,-0.23,48.46,20.20,-87.77
6620,0.30,1.20,-0.16,44.98,1.46,-59.81
6640,0.41,0.92,-0.07,30.33,6.65,-47.18
6660,0.42,0.54,0.14,25.63,15.63,-59.94
6680,0.26,0.88,0.04,27.71,27.28,-74.46
6700,0.12,1.33,-0.05,35.10,16.91,-66.10
6720,0.31,1.15,-0.12,34.24,11.35,-49.13
6740,0.32,0.97,-0.35,26.06,29.54,-43.88
6760,0.29,1.14,-0.36,7.20,34.73,-54.75
6780,-0.04,1.30,-0.05,9.22,22.83,-48.83
6800,0.08,1.20,-0.01,7.32,2.56,-26.49
6820,0.18,1.01,-0.10,-4.21,3.54,-5.13
6840,0.22,0.98,-0.10,-3.17,1.65,-5.80
6860,0.21,0.98,-0.14,0.49,7.20,-6.77
6880,0.20,0.97,-0.15,-0.55,3.85,-8.12
6900,0.18,0.99,-0.13,-3.23,1.65,-9.58
6920,0.18,1.00,-0.11,-3.97,0.73,-10.07
6940,0.16,1.01,-0.09,-3.60,0.67,-8.30
6960,0.15,1.02,-0.12,-2.26,1.89,-5.13
6980,0.17,1.00,-0.10,-0.85,-2.69,-3.36
7000,0.17,1.00,-0.10,0.49,-0.98,-2.20
7020,0.18,0.99,-0.12,-1.16,0.37,-1.71
7040,0.18,0.99,-0.12,-2.26,-1.22,-2.56
7060,0.18,1.00,-0.11,-2.38,-1.34,-3.17
7080,0.18,0.99,-0.11,-2.93,-1.46,-3.54
7100,0.18,1.00,-0.11,-3.17,-1.22,-3.78
7120,0.17,1.00,-0.11,-3.23,-1.53,-3.91
7140,0.16,1.00,-0.10,-3.11,-2.26,-2.08
7160,0.17,1.00,-0.11,-2.93,-3.17,-0.06
7180,0.18,1.00,-0.11,-3.48,-3.11,0.49
7200,0.18,1.00,-0.11,-3.72,-2.14,-0.24
7220,0.18,1.00,-0.11,-4.09,-2.08,-0.24
7240,0.17,1.00,-0.10,-4.15,-1.83,-0.31
7260,0.18,1.00,-0.10,-4.33,-2.14,0.49
7280,0.18,1.00,-0.10,-4.27,-1.77,0.31
7300,0.18,1.00,-0.10,-4.21,-0.98,-0.12
7320,0.17,1.00,-0.09,-3.97,-0.98,-0.12
7340,0.17,1.00,-0.09,-3.85,-1.28,1.34
7360,0.18,1.00,-0.09,-3.72,-1.59,1.89
7380,0.19,0.99,-0.10,-4.33,-1.10,1.71
7400,0.18,1.00,-0.09,-4.46,-0.92,1.53
7420,0.16,1.01,-0.08,-4.46,-0.67,2.08
7440,0.17,1.00,-0.09,-5.19,-1.34,4.70
7460,0.16,1.01,-0.08,-7.69,-2.20,6.90
7480,0.20,1.00,-0.07,-9.52,-2.87,9.58
7500,0.19,1.00,-0.08,-9.58,-0.98,10.19
7520,0.20,1.01,-0.07,-8.79,0.24,11.54
7540,0.19,1.02,-0.08,-9.22,0.31,14.65
7560,0.20,1.01,-0.10,-11.90,-0.24,18.31
7580,0.14,1.09,-0.17,-17.21,-2.75,24.05
7600,0.23,1.08,-0.20,-24.84,-8.30,28.14
7620,0.23,1.10,-0.17,-33.39,-7.32,26.25
7640,0.19,1.22,-0.02,-38.88,-12.94,39.92
7660,0.19,1.21,0.00,-37.11,-9.83,50.17
7680,0.17,1.22,-0.01,-34.42,-8.06,58.65
7700,0.20,1.11,-0.04,-33.45,-6.84,75.13
7720,0.31,1.01,-0.03,-40.16,-4.82,81.30
7740,0.35,0.94,0.01,-44.01,-2.62,85.51
7760,0.41,0.82,0.12,-40.95,-1.83,80.20
7780,0.43,0.82,0.19,-34.42,-3.11,76.78
7800,0.55,0.67,0.21,-28.32,-12.02,73.12
7820,0.59,0.54,0.17,-22.16,-10.86,51.45
7840,0.62,0.50,0.16,-11.90,-7.26,34.67
7860,0.62,0.54,0.14,-6.23,-3.42,18.55
7880,0.64,0.60,0.17,-0.85,-2.20,3.54
7900,0.62,0.62,0.22,9.83,-0.12,-17.94
7920,0.57,0.73,0.19,14.16,2.56,-32.17
7940,0.54,0.81,0.16,19.71,3.72,-41.08
7960,0.49,0.87,0.13,26.31,6.29,-46.63
7980,0.47,0.88,0.07,27.89,6.16,-47.12
8000,0.50,0.81,0.01,27.65,6.59,-47.67
8020,0.43,0.90,-0.01,22.46,7.08,-55.91
8040,0.33,1.01,0.14,23.07,2.87,-55.79
8060,0.38,0.93,0.17,28.14,-0.37,-49.56
8080,0.34,0.91,0.00,33.39,5.25,-49.26
8100,0.39,0.84,-0.08,26.79,9.95,-50.84
8120,0.35,0.95,-0.14,18.92,15.50,-57.07
8140,0.28,0.95,0.08,15.14,8.30,-58.59
8160,0.17,1.04,0.07,18.49,13.98,-64.21
8180,0.12,1.26,0.05,23.01,8.00,-57.62
8200,0.24,1.22,-0.06,31.01,20.94,-38.82
8220,0.32,1.10,-0.28,36.87,23.25,-35.89
8240,0.32,0.95,-0.22,36.32,23.50,-35.46
8260,0.13,1.15,-0.03,25.51,19.41,-27.59
8280,0.14,1.05,-0.07,6.47,1.22,-14.04
8300,0.17,1.01,-0.08,-1.34,5.31,-7.39
8320,0.20,1.00,-0.08,-0.79,3.60,-8.42
8340,0.19,0.99,-0.12,2.69,5.62,-10.19
8360,0.19,0.99,-0.10,1.89,2.50,-11.17
8380,0.17,1.00,-0.10,1.10,1.71,-11.72
8400,0.15,1.01,-0.09,0.73,2.56,-9.46
8420,0.16,1.00,-0.09,0.98,0.79,-6.90
8440,0.16,1.01,-0.08,1.53,0.37,-5.49
8460,0.16,1.00,-0.10,1.65,1.40,-2.38
8480,0.16,1.00,-0.10,1.10,1.16,-1.65
8500,0.17,1.00,-0.11,1.04,0.92,-0.79
8520,0.17,1.00,-0.11,-0.18,0.92,-0.85
8540,0.17,1.00,-0.11,-0.61,0.98,-1.10
8560,0.17,1.00,-0.11,-0.67,0.98,-1.04
8580,0.17,1.00,-0.10,-1.16,0.85,-0.98
8600,0.17,1.00,-0.10,-1.10,1.28,-1.40
8620,0.17,1.00,-0.10,-1.16,0.73,-1.40
8640,0.16,1.00,-0.10,-0.92,0.24,-0.79
8660,0.17,1.00,-0.10,-1.04,0.24,-0.43
8680,0.17,1.00,-0.10,-0.98,0.37,-0.37
8700,0.17,1.00,-0.11,-0.73,0.31,-0.31
8720,0.17,1.00,-0.10,-0.49,0.55,-0.49
8740,0.16,1.00,-0.10,-0.73,0.49,-0.24
8760,0.17,1.00,-0.10,-0.73,0.18,0.31
8780,0.17,1.00,-0.10,-0.61,0.24,0.18
8800,0.16,1.00,-0.10,-0.73,0.18,0.67
8820,0.16,1.00,-0.10,-0.55,-0.18,1.22
8840,0.17,1.00,-0.11,-0.37,-0.61,2.14
8860,0.17,1.00,-0.11,-0.92,-0.79,2.26
8880,0.17,1.00,-0.10,-1.10,-1.28,2.50
8900,0.18,1.00,-0.10,-1.95,-0.98,2.56
8920,0.18,1.00,-0.11,-1.65,-0.85,2.44
8940,0.17,1.00,-0.10,-1.46,-0.31,2.32
8960,0.18,1.00,-0.11,-1.34,-0.55,2.75
8980,0.18,1.00,-0.11,-1.77,-0.67,3.23
9000,0.19,0.99,-0.11,-2.56,-0.55,3.48
9020,0.19,0.99,-0.11,-2.69,0.24,2.56
9040,0.16,1.01,-0.09,-2.87,-0.06,3.17
9060,0.16,1.02,-0.09,-3.97,-1.34,6.84
9080,0.18,1.01,-0.10,-5.37,-2.87,12.88
9100,0.19,1.01,-0.09,-6.77,-2.26,13.49
9120,0.19,1.01,-0.09,-6.77,-1.59,15.38
9140,0.18,1.04,-0.08,-7.63,-2.50,19.17
9160,0.17,1.09,-0.13,-6.71,-4.52,26.06
9180,0.21,1.06,-0.13,-5.37,-8.42,30.64
9200,0.20,1.12,-0.14,-5.80,-8.48,33.02
9220,0.24,1.12,-0.15,-8.97,-8.00,40.53
9240,0.25,1.10,-0.18,-13.12,-9.52,45.90
9260,0.24,1.09,-0.19,-20.08,-10.86,49.07
9280,0.27,1.08,-0.13,-29.60,-14.71,53.34
9300,0.28,1.09,-0.05,-33.14,-16.54,57.50
9320,0.27,1.08,-0.04,-35.58,-14.83,63.66
9340,0.36,0.98,0.01,-39.25,-11.54,73.61
9360,0.36,0.95,-0.00,-39.86,-7.57,75.68
9380,0.47,0.78,0.02,-39.55,-9.28,75.50
9400,0.53,0.66,0.04,-39.18,-10.74,63.78
9420,0.60,0.56,0.10,-35.77,-12.27,52.55
9440,0.61,0.55,0.14,-29.85,-10.19,38.33
9460,0.62,0.53,0.19,-16.78,-5.31,15.14
9480,0.63,0.57,0.20,-8.36,-1.53,0.24
9500,0.66,0.59,0.21,-0.43,1.46,-16.05
9520,0.62,0.61,0.21,9.52,5.62,-41.08
9540,0.52,0.78,0.22,25.02,6.90,-52.25
9560,0.49,0.83,0.15,32.10,7.69,-57.25
9580,0.47,0.80,-0.06,33.39,10.38,-59.33
9600,0.38,0.98,-0.09,24.96,9.89,-62.87
9620,0.43,1.00,0.03,18.74,3.11,-60.79
9640,0.42,0.76,0.14,24.23,5.13,-60.97
9660,0.22,1.04,0.01,25.76,12.88,-64.94
9680,0.31,1.06,-0.02,23.93,5.68,-52.86
9700,0.27,1.09,-0.14,20.45,14.16,-49.26
9720,0.37,0.84,-0.03,18.62,11.23,-49.01
9740,0.36,0.62,0.02,17.88,17.33,-60.61
9760,0.09,1.19,-0.04,17.88,23.74,-74.46
9780,0.03,1.44,-0.17,28.02,20.45,-45.84
9800,0.10,1.10,-0.39,28.26,15.14,-23.32
9820,0.32,1.07,-0.16,17.46,-0.24,-20.57
9840,0.28,1.04,-0.07,1.83,16.48,-17.46
9860,0.14,1.06,-0.03,5.07,11.17,-18.31
9880,0.20,1.01,-0.06,7.26,10.93,-13.98
9900,0.20,0.98,-0.12,7.93,10.44,-15.32
9920,0.19,0.99,-0.12,5.74,7.57,-15.50
9940,0.16,1.00,-0.10,2.20,3.72,-13.24
9960,0.15,1.00,-0.10,0.12,2.08,-11.29
9980,0.15,1.01,-0.08,-1.83,0.85,-7.45
10000,0.16,1.01,-0.08,-0.92,1.34,-4.52
10020,0.16,1.00,-0.09,0.85,1.77,-2.62
10040,0.16,1.00,-0.11,1.40,1.46,-1.46
10060,0.16,1.00,-0.11,0.92,1.16,-0.98
10080,0.17,0.99,-0.12,0.73,1.04,-0.06
10100,0.17,1.00,-0.11,-0.24,1.22,-0.43
10120,0.17,1.00,-0.11,-0.73,1.40,-0.79
10140,0.17,1.00,-0.11,-1.10,1.65,-0.85
10160,0.17,1.00,-0.11,-1.71,1.46,-0.92
10180,0.17,1.00,-0.11,-1.89,1.34,-0.85
10200,0.17,1.00,-0.11,-2.08,0.98,-0.67
10220,0.16,1.00,-0.10,-2.56,0.61,-0.55
10240,0.17,1.00,-0.11,-1.83,0.49,-0.43
10260,0.17,1.00,-0.11,-1.83,0.49,-0.43
10280,0.17,1.00,-0.11,-1.95,0.98,-0.49
10300,0.17,1.00,-0.11,-1.95,1.22,-0.79
10320,0.17,1.00,-0.10,-1.83,0.92,-0.55
10340,0.17,1.00,-0.10,-2.20,0.67,-0.61
10360,0.17,1.00,-0.10,-1.77,1.04,-0.61
10380,0.17,1.00,-0.10,-1.77,0.67,-0.67
10400,0.17,1.00,-0.10,-1.34,0.79,-0.67
10420,0.17,1.00,-0.11,-0.73,0.73,-0.55
10440,0.17,1.00,-0.11,-0.73,0.61,-0.79
10460,0.17,1.00,-0.10,-0.85,0.92,-0.98
10480,0.15,1.00,-0.09,-0.55,0.49,-0.79
10500,0.17,1.00,-0.11,0.06,-0.37,0.43
10520,0.17,1.00,-0.10,-0.43,-0.67,0.73
10540,0.16,1.00,-0.10,-0.55,-0.67,1.34
10560,0.16,1.00,-0.10,-0.55,-1.16,2.14
10580,0.17,1.00,-0.10,-0.61,-0.85,2.75
10600,0.17,1.00,-0.10,-0.61,-1.77,3.48
10620,0.15,1.01,-0.09,-0.73,-2.20,5.25
10640,0.18,0.99,-0.12,-2.62,-3.42,7.93
10660,0.18,1.00,-0.12,-6.65,-3.60,9.03
10680,0.17,1.02,-0.08,-8.36,-3.97,11.41
10700,0.17,1.04,-0.07,-7.87,-4.21,15.38
10720,0.21,1.02,-0.10,-4.64,-0.92,20.94
10740,0.19,1.07,-0.08,-0.92,0.24,25.76
10760,0.19,1.05,-0.13,1.16,-0.12,30.58
10780,0.19,1.08,-0.16,-0.12,-3.54,34.36
10800,0.21,1.20,-0.17,-3.30,-9.70,41.44
10820,0.24,1.17,-0.22,-9.70,-8.85,48.83
10840,0.24,1.10,-0.24,-17.21,-10.62,54.63
10860,0.26,1.09,-0.20,-31.68,-14.47,58.78
10880,0.26,1.07,-0.10,-37.66,-17.58,62.19
10900,0.27,1.07,-0.05,-41.14,-16.66,67.32
10920,0.35,0.92,0.03,-44.07,-14.04,75.87
10940,0.39,0.87,0.02,-43.27,-6.47,76.90
10960,0.41,0.82,0.02,-40.04,-4.70,73.85
10980,0.50,0.73,0.09,-35.10,-10.13,67.87
11000,0.57,0.63,0.10,-32.23,-13.67,62.13
11020,0.60,0.58,0.09,-27.04,-11.47,49.56
11040,0.61,0.62,0.16,-16.11,-8.67,29.97
11060,0.63,0.62,0.18,-8.06,-6.96,18.68
11080,0.63,0.64,0.16,-1.40,-3.48,6.96
11100,0.62,0.66,0.14,5.68,1.04,-8.91
11120,0.61,0.69,0.10,8.12,5.74,-20.51
11140,0.57,0.77,0.05,12.27,7.14,-29.11
11160,0.56,0.82,0.08,15.93,5.68,-36.25
11180,0.56,0.79,0.09,17.40,6.29,-40.41
11200,0.54,0.72,0.09,19.71,8.48,-46.39
11220,0.46,0.84,0.01,19.90,11.11,-52.12
11240,0.43,0.96,0.07,21.85,6.29,-54.02
11260,0.44,0.82,0.06,25.76,6.65,-52.98
11280,0.44,0.82,0.00,27.22,8.36,-56.40
11300,0.42,0.80,-0.02,22.64,7.08,-62.50
11320,0.32,0.93,-0.07,18.92,11.78,-68.91
11340,0.17,1.21,0.01,18.19,11.90,-66.28
11360,0.27,1.00,-0.00,25.82,12.94,-51.64
11380,0.26,0.91,-0.05,27.34,16.66,-51.94
11400,0.33,0.96,-0.17,23.74,17.64,-53.16
11420,0.16,1.28,-0.34,12.94,28.20,-55.36
11440,0.34,1.08,-0.20,8.48,14.40,-43.95
11460,0.16,1.18,-0.12,3.85,19.41,-40.41
11480,0.11,1.14,-0.02,-3.66,9.46,-25.39
11500,0.16,1.03,-0.04,-5.74,1.95,-13.43
11520,0.20,0.98,-0.10,-6.35,3.42,-10.19
11540,0.21,0.98,-0.09,-2.62,1.59,-14.04
11560,0.19,0.99,-0.08,-1.34,2.50,-13.37
11580,0.19,1.00,-0.07,-0.49,3.60,-12.51
11600,0.18,1.00,-0.07,1.59,4.88,-11.47
11620,0.16,1.01,-0.08,3.48,5.37,-11.11
11640,0.16,1.01,-0.08,3.11,4.64,-8.97
11660,0.16,1.01,-0.08,1.95,3.23,-6.53
11680,0.16,1.00,-0.08,0.92,1.71,-3.17
11700,0.16,1.00,-0.09,0.37,1.10,-1.46
11720,0.17,1.00,-0.09,0.18,1.28,-0.67
11740,0.17,1.00,-0.09,0.92,1.22,-0.43
11760,0.17,1.00,-0.09,1.04,0.92,-0.06
11780,0.17,1.00,-0.10,1.22,0.37,-0.12
11800,0.17,1.00,-0.10,0.12,0.31,-0.12
11820,0.17,1.00,-0.10,-0.24,0.24,-0.24
11840,0.17,1.00,-0.09,-0.73,0.49,-0.37
11860,0.17,1.00,-0.09,-0.55,0.67,-0.43
11880,0.17,1.00,-0.10,-0.24,0.98,-0.61
11900,0.17,1.00,-0.10,-0.55,1.28,-1.04
11920,0.17,1.00,-0.10,-0.67,1.46,-1.04
11940,0.17,1.00,-0.09,-0.55,1.53,-1.16
11960,0.17,1.00,-0.10,-0.18,1.83,-1.16
11980,0.17,1.00,-0.10,-0.49,1.83,-0.92
12000,0.17,1.00,-0.09,-0.24,1.77,-0.55
12020,0.17,1.00,-0.10,0.18,1.77,-0.18
12040,0.17,1.00,-0.10,0.18,1.65,-0.18
12060,0.17,1.00,-0.10,0.18,1.59,-0.06
12080,0.17,1.00,-0.10,-0.24,1.34,0.00
12100,0.17,1.00,-0.10,-0.55,1.28,-0.31
12120,0.17,1.00,-0.10,-0.31,1.71,-0.43
12140,0.17,1.00,-0.10,-0.24,1.34,0.06
12160,0.17,1.00,-0.10,-0.37,1.53,-0.06
12180,0.17,1.00,-0.10,-0.55,1.77,-0.43
12200,0.17,1.00,-0.10,-0.73,1.34,0.12
12220,0.17,1.00,-0.10,-0.85,1.46,0.06
12240,0.16,1.00,-0.10,-0.43,1.10,0.37
12260,0.14,1.01,-0.08,0.00,0.55,1.65
12280,0.17,1.00,-0.11,0.43,-0.55,2.87
12300,0.17,1.00,-0.10,-1.22,-1.34,2.93
12320,0.17,1.00,-0.10,-1.22,-1.10,3.54
12340,0.15,1.01,-0.08,-3.30,-0.31,5.19
12360,0.11,1.04,-0.05,-3.23,-3.66,13.79
12380,0.18,1.02,-0.11,-2.62,-6.59,20.87
12400,0.22,0.99,-0.14,-4.58,-7.20,22.22
12420,0.21,1.01,-0.12,-7.32,-4.33,20.81
12440,0.19,1.07,-0.10,-8.73,-3.85,24.90
12460,0.20,1.06,-0.12,-7.39,-4.09,27.83
12480,0.18,1.15,-0.11,-5.74,-6.10,46.69
12500,0.27,1.12,-0.09,-5.31,-9.52,44.98
12520,0.24,1.11,-0.22,-7.20,-5.00,49.62
12540,0.26,1.08,-0.21,-14.04,-9.83,52.80
12560,0.29,1.02,-0.14,-26.12,-14.47,54.44
12580,0.25,1.12,-0.10,-30.46,-14.40,55.18
12600,0.32,0.99,-0.05,-30.82,-18.43,62.19
12620,0.30,1.02,0.01,-35.10,-10.07,63.72
12640,0.41,0.89,0.02,-35.40,-10.38,72.02
12660,0.44,0.77,-0.01,-36.19,-4.64,68.85
12680,0.49,0.75,0.04,-35.03,-7.93,57.80
12700,0.55,0.67,0.07,-32.78,-10.44,53.16
12720,0.59,0.65,0.11,-29.79,-9.77,43.33
12740,0.59,0.64,0.13,-21.06,-6.41,26.06
12760,0.60,0.66,0.17,-13.49,-4.09,15.14
12780,0.62,0.68,0.19,-5.92,-2.14,4.58
12800,0.63,0.67,0.19,6.16,3.54,-12.88
12820,0.62,0.62,0.16,13.31,8.85,-28.26
12840,0.58,0.61,0.15,21.06,10.13,-41.99
12860,0.49,0.76,0.03,25.76,11.90,-55.30
12880,0.45,0.93,0.02,30.27,5.98,-54.75
12900,0.48,0.88,-0.00,29.60,5.74,-54.14
12920,0.50,0.73,0.02,29.85,8.97,-60.00
12940,0.37,0.74,0.04,28.75,13.92,-73.85
12960,0.14,1.30,-0.01,27.59,12.08,-77.33
12980,0.29,1.16,-0.02,30.64,-1.46,-53.71
13000,0.33,0.97,-0.11,28.87,8.79,-42.60
13020,0.41,0.79,-0.11,23.99,14.77,-46.26
13040,0.41,0.62,-0.08,16.36,25.15,-62.50
13060,0.11,1.43,-0.15,8.97,33.20,-78.12
13080,-0.14,1.49,-0.50,11.54,34.79,-55.18
13100,0.14,1.16,-0.23,13.43,7.26,-30.88
13120,0.20,1.10,-0.10,1.34,8.91,-21.91
13140,0.15,1.09,-0.01,-2.32,9.34,-17.94
13160,0.18,1.03,-0.04,-0.55,8.24,-12.33
13180,0.19,1.00,-0.09,2.26,8.97,-9.89
13200,0.19,0.99,-0.12,2.08,7.75,-10.50
13220,0.18,0.98,-0.12,1.46,4.21,-9.28
13240,0.18,0.99,-0.11,-1.46,1.65,-8.67
13260,0.17,1.00,-0.10,-2.87,1.04,-8.12
13280,0.18,1.00,-0.09,-1.77,0.85,-7.20
13300,0.15,1.00,-0.11,-0.98,4.33,-4.52
13320,0.18,1.00,-0.09,1.77,1.10,-3.72
13340,0.18,1.00,-0.11,2.38,2.69,-2.50
13360,0.18,1.00,-0.11,1.65,1.71,-2.38
13380,0.18,0.99,-0.11,0.24,1.22,-3.60
13400,0.17,1.00,-0.10,-0.85,0.67,-4.39
13420,0.18,1.00,-0.10,-0.43,0.24,-4.46
13440,0.17,1.00,-0.11,0.49,0.49,-4.82
13460,0.17,1.00,-0.11,0.92,0.85,-5.13
13480,0.16,1.00,-0.10,0.98,1.10,-4.82
13500,0.16,1.00,-0.11,0.55,0.61,-3.91
13520,0.16,1.00,-0.11,0.12,0.18,-3.23
13540,0.16,1.00,-0.11,-0.12,0.00,-2.93
13560,0.17,1.00,-0.11,0.00,0.12,-2.32
13580,0.16,1.00,-0.11,0.06,0.61,-1.83
13600,0.16,1.00,-0.11,-0.18,0.67,-0.85
13620,0.17,1.00,-0.12,0.00,0.79,-0.24
13640,0.16,1.00,-0.12,-0.06,1.28,-0.12
13660,0.16,1.00,-0.11,-0.37,0.92,0.18
13680,0.16,1.00,-0.11,-0.37,1.22,0.73
13700,0.16,1.00,-0.11,-0.49,1.34,1.04
13720,0.16,1.00,-0.11,-0.55,1.59,1.40
13740,0.17,1.00,-0.12,-0.18,1.65,1.77
13760,0.16,1.00,-0.12,-0.79,1.77,1.53
13780,0.16,1.00,-0.12,-0.98,1.59,1.89
13800,0.16,1.00,-0.12,-1.40,2.08,2.20
13820,0.17,1.00,-0.12,-2.75,2.01,2.56
13840,0.17,1.00,-0.11,-3.85,1.89,2.69
13860,0.17,1.00,-0.11,-3.97,1.46,2.56
13880,0.18,0.99,-0.12,-3.54,0.12,2.56
13900,0.16,1.01,-0.09,-3.11,-0.55,2.56
13920,0.12,1.01,-0.09,-1.65,-1.28,4.64
13940,0.15,1.00,-0.10,-4.09,-7.45,11.60
13960,0.16,1.03,-0.11,-8.24,-12.63,15.99
13980,0.16,1.07,-0.09,-13.67,-14.04,20.87
14000,0.20,1.05,-0.08,-10.07,-12.15,28.63
14020,0.18,1.09,-0.15,-5.68,-12.33,35.22
14040,0.25,1.06,-0.16,-3.66,-13.43,39.49
14060,0.25,1.06,-0.19,-6.77,-11.35,41.75
14080,0.24,1.14,-0.21,-13.06,-7.63,44.74
14100,0.25,1.11,-0.17,-17.70,-11.11,50.23
14120,0.27,1.06,-0.14,-24.29,-12.45,54.93
14140,0.27,1.07,-0.09,-30.52,-13.00,56.95
14160,0.31,1.01,-0.05,-33.57,-13.92,61.04
14180,0.30,1.04,-0.02,-35.83,-9.77,62.50
14200,0.35,0.95,0.07,-32.17,-6.41,69.89
14220,0.43,0.84,0.10,-30.82,-5.25,71.41
14240,0.50,0.70,0.08,-29.48,-8.42,64.64
14260,0.55,0.63,0.02,-28.32,-6.10,52.73
14280,0.59,0.63,0.03,-27.16,-7.02,42.54
14300,0.61,0.61,0.08,-23.32,-6.77,30.88
14320,0.60,0.70,0.16,-13.79,-4.03,12.02
14340,0.60,0.72,0.16,-6.77,-2.32,2.81
14360,0.59,0.77,0.17,0.37,-0.24,-5.37
14380,0.54,0.83,0.17,12.39,1.83,-14.47
14400,0.53,0.82,0.13,18.25,3.54,-18.31
14420,0.50,0.87,0.06,21.24,6.10,-21.61
14440,0.51,0.86,0.01,20.14,6.65,-22.83
14460,0.50,0.86,-0.05,17.64,6.35,-22.52
14480,0.50,0.85,-0.03,14.16,6.10,-24.72
14500,0.53,0.81,0.02,12.63,6.77,-31.74
14520,0.47,0.82,0.12,17.40,5.49,-37.60
14540,0.44,0.87,0.10,22.22,7.20,-41.69
14560,0.47,0.81,0.02,24.23,7.57,-43.88
14580,0.44,0.86,-0.13,20.69,11.41,-48.95
14600,0.41,0.83,-0.11,17.03,11.23,-53.89
14620,0.42,0.71,-0.07,9.83,11.41,-60.55
14640,0.27,0.94,-0.04,0.06,15.26,-72.33
14660,0.19,1.19,-0.02,-0.73,14.04,-71.23
14680,0.20,1.23,0.07,7.39,7.87,-61.40
14700,0.31,1.02,-0.08,18.07,13.37,-48.89
14720,0.30,0.98,-0.26,16.05,24.48,-52.06
14740,0.01,1.27,-0.41,3.91,29.85,-54.20
14760,0.12,1.15,-0.05,-1.95,4.52,-27.16
14780,0.19,1.06,-0.04,-2.75,1.89,-14.89
14800,0.23,1.01,-0.04,-1.59,3.60,-11.72
14820,0.23,0.99,-0.08,1.71,10.07,-13.73
14840,0.19,1.00,-0.08,3.72,11.78,-16.17
14860,0.17,1.01,-0.08,5.74,9.52,-16.24
14880,0.16,1.02,-0.07,4.64,5.49,-12.15
14900,0.17,1.01,-0.07,3.42,5.68,-8.54
14920,0.16,1.01,-0.08,2.26,4.70,-8.06
14940,0.17,1.01,-0.07,1.04,4.33,-5.43
14960,0.16,1.00,-0.08,0.31,3.11,-3.97
14980,0.16,1.00,-0.09,0.31,1.71,-3.30
15000,0.17,1.00,-0.09,0.12,1.16,-2.50
15020,0.17,1.00,-0.09,0.00,0.37,-0.85
15040,0.17,1.00,-0.09,1.28,1.04,-0.61
15060,0.17,1.00,-0.10,1.10,1.22,-0.49
15080,0.17,1.00,-0.09,0.61,1.22,-1.10
15100,0.17,1.00,-0.10,-0.61,0.55,-0.79
15120,0.17,1.00,-0.10,-1.46,0.73,-1.28
15140,0.17,1.00,-0.10,-2.14,-0.18,-1.34
15160,0.17,1.00,-0.09,-1.95,-0.31,-1.71
15180,0.17,1.00,-0.09,-1.71,-0.49,-1.89
15200,0.17,1.00,-0.08,-0.92,-0.31,-1.22
15220,0.17,1.00,-0.09,-0.06,0.49,-0.49
15240,0.17,1.00,-0.09,0.06,0.49,-0.43
15260,0.17,1.00,-0.09,-0.37,0.55,-0.49
15280,0.17,1.00,-0.09,-0.55,0.67,-0.73
15300,0.17,1.00,-0.09,-0.79,0.18,-0.67
15320,0.17,1.00,-0.10,-1.59,0.06,-0.79
15340,0.17,1.00,-0.09,-1.16,0.18,-1.16
15360,0.17,1.00,-0.09,-0.24,0.55,-0.73
15380,0.17,1.00,-0.10,-0.06,0.85,-0.61
15400,0.17,1.00,-0.09,-0.85,0.67,-0.55
15420,0.17,1.00,-0.09,-1.04,0.67,-0.49
15440,0.17,1.00,-0.10,-0.92,0.43,-0.49
15460,0.17,1.00,-0.09,-1.04,0.31,-0.49
15480,0.17,1.00,-0.09,-0.61,0.79,-0.12
15500,0.17,1.00,-0.09,-0.24,0.85,0.18
15520,0.17,1.00,-0.10,0.18,1.10,0.00
15540,0.17,1.00,-0.10,-0.12,1.10,0.18
15560,0.17,1.00,-0.10,-0.24,0.79,0.37
15580,0.17,1.00,-0.10,-0.24,0.24,0.92
15600,0.17,1.00,-0.10,-0.55,0.37,0.92
15620,0.17,1.00,-0.10,-0.61,0.37,0.73
15640,0.14,1.00,-0.09,-0.61,0.12,1.10
15660,0.16,1.00,-0.09,-0.79,-1.16,2.44
15680,0.15,1.01,-0.08,-1.16,-2.56,4.76
15700,0.19,0.99,-0.11,-4.15,-4.46,6.84
15720,0.19,1.00,-0.10,-6.53,-3.78,5.68
15740,0.19,1.00,-0.09,-7.57,-3.60,5.55
15760,0.19,1.00,-0.08,-7.51,-2.81,5.98
15780,0.17,1.02,-0.08,-6.16,-2.87,7.75
15800,0.19,1.01,-0.07,-5.68,-4.15,10.74
15820,0.22,0.99,-0.09,-5.68,-3.72,11.96
15840,0.23,0.99,-0.09,-7.08,-2.20,10.25
15860,0.21,1.00,-0.09,-7.02,-0.67,8.97
15880,0.21,1.00,-0.08,-7.45,-1.77,9.28
15900,0.24,0.98,-0.07,-5.86,-1.89,8.91
15920,0.24,0.99,-0.08,-6.77,-1.28,7.39
15940,0.23,0.99,-0.08,-7.20,-0.98,5.86
15960,0.22,1.00,-0.06,-7.32,-0.73,5.43
15980,0.22,1.02,-0.06,-7.14,-1.22,6.65
16000,0.19,1.08,-0.07,-6.65,-1.10,9.16
16020,0.22,1.06,-0.07,-6.90,-2.26,17.15
16040,0.23,1.05,-0.10,-8.12,-2.32,21.24
16060,0.22,1.08,-0.09,-9.64,-2.99,24.35
16080,0.22,1.10,-0.05,-12.94,-5.68,32.04
16100,0.27,1.02,-0.05,-12.45,-7.02,36.50
16120,0.29,0.99,-0.06,-12.76,-7.26,36.74
16140,0.31,0.97,-0.04,-13.67,-9.09,36.01
16160,0.35,0.92,-0.01,-14.28,-9.95,35.34
16180,0.35,0.92,-0.01,-14.59,-8.42,33.02
16200,0.37,0.90,-0.00,-15.14,-6.84,30.09
16220,0.38,0.93,-0.00,-16.78,-5.07,28.08
16240,0.38,0.92,0.01,-17.15,-4.52,27.34
16260,0.41,0.89,0.01,-18.07,-3.54,26.61
16280,0.37,0.99,0.00,-21.48,-0.85,22.28
16300,0.41,0.98,0.02,-22.95,-2.26,24.41
16320,0.41,0.96,0.03,-24.05,-1.71,26.31
16340,0.41,0.98,0.06,-22.89,-1.65,28.75
16360,0.42,0.95,0.07,-21.91,-1.95,31.49
16380,0.42,0.99,0.09,-20.94,-1.83,34.12
16400,0.46,0.90,0.07,-20.75,-1.83,38.02
16420,0.50,0.87,0.07,-20.63,-1.77,37.66
16440,0.52,0.84,0.08,-19.41,-2.38,35.28
16460,0.57,0.76,0.11,-15.56,-3.60,28.44
16480,0.59,0.68,0.19,-9.83,-3.72,20.75
16500,0.60,0.67,0.23,-3.91,-1.95,10.01
16520,0.63,0.58,0.21,4.15,2.56,-8.54
16540,0.59,0.61,0.15,9.77,6.53,-24.17
16560,0.54,0.73,0.15,16.97,6.41,-37.11
16580,0.50,0.87,0.18,28.44,3.11,-44.56
16600,0.47,0.87,0.06,31.68,5.92,-44.13
16620,0.49,0.80,-0.02,29.85,6.90,-45.10
16640,0.50,0.83,-0.04,25.70,7.39,-51.51
16660,0.39,1.02,0.07,26.18,1.71,-46.33
16680,0.33,1.04,0.07,27.22,2.50,-39.06
16700,0.34,1.05,0.08,29.60,-0.61,-33.39
16720,0.39,0.91,-0.09,23.68,8.61,-24.66
16740,0.37,0.95,-0.16,13.92,13.18,-27.71
16760,0.38,0.91,-0.07,9.64,8.61,-28.63
16780,0.27,1.09,0.01,7.32,5.19,-27.34
16800,0.33,1.01,0.03,8.30,1.95,-20.51
16820,0.36,0.90,-0.02,9.03,6.59,-19.47
16840,0.36,0.89,-0.07,6.23,11.35,-27.22
16860,0.33,0.94,-0.03,5.13,9.83,-31.62
16880,0.22,1.10,0.01,7.69,7.51,-31.74
16900,0.25,1.04,-0.02,14.22,4.39,-17.94
16920,0.31,0.98,-0.07,15.38,7.14,-15.93
16940,0.35,0.88,-0.12,13.18,10.13,-19.29
16960,0.35,0.86,-0.12,5.55,15.08,-31.62
16980,0.13,1.21,-0.09,3.78,12.08,-28.44
17000,0.19,1.11,-0.09,5.07,5.68,-13.49
17020,0.25,1.04,-0.10,3.97,1.95,-5.74
17040,0.29,0.93,-0.11,1.53,4.88,-6.23
17060,0.31,0.91,-0.08,-1.40,7.02,-12.45
17080,0.20,1.03,-0.06,-0.85,10.93,-18.37
17100,0.18,1.04,-0.08,4.88,3.17,-10.86
17120,0.23,1.00,-0.10,1.95,-0.06,-5.86
17140,0.24,0.99,-0.08,-0.98,0.06,-4.82
17160,0.25,0.97,-0.07,1.65,1.89,-4.64
17180,0.26,0.96,-0.09,3.30,4.94,-6.96
17200,0.27,0.95,-0.11,4.70,8.73,-11.54
17220,0.20,1.02,-0.09,7.81,11.60,-18.31
17240,0.18,1.02,-0.09,7.69,9.58,-16.97
17260,0.17,1.02,-0.09,4.76,6.47,-13.49
17280,0.19,1.00,-0.10,0.67,3.30,-9.28
17300,0.18,1.00,-0.09,-0.43,1.71,-8.85
17320,0.17,1.01,-0.09,-0.67,0.18,-7.14
17340,0.19,1.00,-0.10,-2.14,-1.22,-3.78
17360,0.19,1.00,-0.10,-2.26,-1.53,-3.78
17380,0.19,1.00,-0.10,-2.62,-1.22,-3.23
17400,0.19,1.00,-0.09,-2.38,-0.85,-2.81
17420,0.19,1.00,-0.09,-1.65,-0.43,-2.50
17440,0.18,1.00,-0.09,-0.67,0.31,-2.26
17460,0.19,1.00,-0.10,-0.85,0.49,-1.28
17480,0.19,1.00,-0.10,-0.37,0.37,-0.79
17500,0.19,0.99,-0.10,-0.85,0.73,-0.98
17520,0.19,1.00,-0.10,-0.92,0.85,-1.22
17540,0.19,1.00,-0.09,-0.85,0.85,-1.59
17560,0.19,1.00,-0.10,0.31,1.46,-1.34
17580,0.19,0.99,-0.10,0.12,1.83,-1.46
17600,0.19,1.00,-0.10,-1.16,1.65,-1.77
17620,0.18,1.00,-0.09,-1.10,1.46,-1.53
17640,0.18,1.00,-0.09,-1.34,0.67,-0.61
17660,0.19,1.00,-0.10,-1.65,0.12,-0.12
17680,0.19,1.00,-0.10,-1.53,0.37,-0.24
17700,0.19,1.00,-0.10,-1.28,0.79,-0.18
17720,0.18,1.00,-0.10,-1.28,1.22,-0.31
17740,0.16,1.00,-0.09,-1.59,0.24,0.79
17760,0.18,1.00,-0.10,-2.08,-1.22,2.20
17780,0.19,0.99,-0.11,-3.23,-1.04,2.08
17800,0.20,1.00,-0.10,-3.30,-1.22,1.59
17820,0.19,1.00,-0.10,-3.23,-0.31,1.16
17840,0.18,1.00,-0.09,-3.66,-0.37,1.10
17860,0.18,1.00,-0.09,-4.88,-1.40,2.38
17880,0.19,1.00,-0.09,-6.16,-2.01,3.17
17900,0.20,1.00,-0.09,-5.98,-1.89,3.05
17920,0.20,1.00,-0.08,-4.70,-0.98,2.56
17940,0.19,1.00,-0.09,-3.85,-0.37,2.44
17960,0.19,1.01,-0.07,-3.78,-1.16,3.60
17980,0.20,1.00,-0.08,-4.82,-1.65,6.23
18000,0.21,1.00,-0.08,-5.07,-1.65,6.71
18020,0.21,1.00,-0.08,-5.13,-0.61,6.71
18040,0.21,1.00,-0.07,-4.52,-0.06,6.90
18060,0.21,1.00,-0.07,-4.52,-0.49,8.18
18080,0.22,0.99,-0.09,-4.76,-0.67,8.91
18100,0.23,1.00,-0.08,-5.98,-1.34,8.85
18120,0.21,1.02,-0.09,-5.74,-1.46,9.70
18140,0.22,1.03,-0.07,-5.43,-2.62,11.41
18160,0.22,1.03,-0.08,-4.21,-3.72,14.40
18180,0.24,1.03,-0.09,-4.27,-3.97,15.81
18200,0.23,1.05,-0.09,-5.62,-3.91,18.19
18220,0.24,1.07,-0.10,-7.45,-2.69,23.44
18240,0.26,1.03,-0.08,-9.09,-4.70,27.16
18260,0.27,1.03,-0.09,-11.29,-4.15,28.32
18280,0.28,1.02,-0.07,-12.88,-5.74,30.64
18300,0.29,1.02,-0.04,-13.61,-7.08,32.23
18320,0.30,1.00,-0.03,-13.31,-7.20,34.00
18340,0.32,1.00,-0.03,-13.61,-7.14,36.01
18360,0.37,0.92,-0.03,-15.01,-7.14,37.23
18380,0.36,0.94,-0.04,-16.60,-5.19,34.73
18400,0.38,0.91,-0.02,-18.98,-5.86,34.91
18420,0.39,0.94,0.00,-21.36,-4.15,33.45
18440,0.41,0.93,0.02,-21.42,-3.36,33.45
18460,0.43,0.88,0.04,-21.36,-2.62,32.23
18480,0.44,0.88,0.04,-20.51,-3.30,29.24
18500,0.46,0.85,0.04,-20.69,-2.20,27.95
18520,0.45,0.91,0.04,-19.96,-1.34,25.33
18540,0.49,0.85,0.07,-19.41,-2.14,24.23
18560,0.49,0.82,0.06,-18.98,-0.98,20.57
18580,0.50,0.86,0.08,-18.31,-0.67,16.91
18600,0.51,0.83,0.10,-15.63,-0.85,12.39
18620,0.53,0.79,0.11,-13.06,-0.73,6.90
18640,0.55,0.74,0.15,-9.64,-0.98,1.28
18660,0.57,0.68,0.15,-5.55,1.65,-13.67
18680,0.51,0.77,0.07,-3.17,2.56,-25.02
18700,0.50,0.83,0.12,-0.37,-0.67,-31.07
18720,0.47,0.87,0.10,1.59,-15.50,-35.58
18740,0.47,0.83,0.12,6.47,-0.24,-39.86
18760,0.48,0.77,0.13,8.85,-0.85,-44.49
18780,0.36,1.01,0.12,9.64,0.18,-50.84
18800,0.36,1.10,0.16,19.59,-2.01,-40.95
18820,0.37,0.96,0.12,26.79,2.08,-33.26
18840,0.34,0.97,0.05,30.64,6.10,-32.84
18860,0.34,0.96,-0.04,26.18,8.91,-28.44
18880,0.37,0.93,-0.11,17.40,8.36,-27.59
18900,0.31,1.02,-0.08,9.64,9.16,-29.24
18920,0.27,1.02,0.05,7.93,6.77,-27.16
18940,0.26,1.04,0.10,11.17,3.23,-22.83
18960,0.30,1.00,0.01,14.16,5.68,-18.92
18980,0.34,0.92,-0.07,11.78,8.61,-21.67
19000,0.34,0.89,-0.05,8.18,9.70,-26.86
19020,0.25,1.00,0.01,7.51,10.07,-31.31
19040,0.22,1.07,0.02,11.05,5.37,-23.38
19060,0.27,1.02,-0.03,12.94,6.71,-18.92
19080,0.30,1.00,-0.05,13.92,9.77,-20.14
19100,0.30,0.99,-0.05,15.69,16.30,-25.15
19120,0.10,1.13,-0.06,20.20,21.79,-26.67
19140,0.11,1.08,-0.13,28.02,15.26,-13.92
19160,0.19,0.97,-0.21,22.83,8.42,-6.59
19180,0.23,1.01,-0.11,7.39,1.28,-7.57
19200,0.24,1.00,-0.08,2.20,1.34,-7.14
19220,0.25,0.99,-0.08,0.31,4.39,-8.79
19240,0.18,1.00,-0.07,1.89,7.87,-12.27
19260,0.17,1.00,-0.08,3.17,4.21,-9.95
19280,0.23,0.99,-0.11,3.91,0.37,-7.57
19300,0.21,1.01,-0.07,3.11,0.67,-6.96
19320,0.20,1.00,-0.09,3.97,1.83,-6.47
19340,0.20,1.00,-0.10,3.54,2.87,-6.65
19360,0.21,0.99,-0.11,2.81,4.33,-8.54
19380,0.20,0.99,-0.10,3.60,4.46,-9.83
19400,0.18,1.00,-0.10,4.27,4.46,-10.25
19420,0.18,1.01,-0.08,3.72,2.99,-7.57
19440,0.18,1.00,-0.10,2.44,2.26,-5.74
19460,0.18,1.00,-0.10,2.01,1.53,-5.49
19480,0.18,1.00,-0.10,1.16,1.59,-3.97
19500,0.17,1.00,-0.10,1.10,1.40,-3.54
19520,0.17,1.00,-0.11,1.04,0.79,-2.87
19540,0.17,1.00,-0.11,0.55,0.79,-2.32
19560,0.18,0.99,-0.12,0.85,0.79,-2.26
19580,0.17,1.00,-0.12,0.31,0.55,-2.44
19600,0.17,1.00,-0.11,-0.43,0.24,-2.14
19620,0.17,1.00,-0.11,-0.49,0.67,-2.14
19640,0.17,1.00,-0.11,-0.92,0.73,-1.83
19660,0.17,1.00,-0.11,-1.28,0.55,-0.92
19680,0.17,1.00,-0.11,-1.10,0.73,-0.67
19700,0.18,1.00,-0.11,-0.37,0.43,-0.43
19720,0.17,1.00,-0.11,0.18,0.85,-0.37
19740,0.17,1.00,-0.11,-0.12,1.04,-0.31
19760,0.17,1.00,-0.11,-0.43,0.92,-0.06
19780,0.18,1.00,-0.11,-0.85,0.92,-0.12
19800,0.17,1.00,-0.11,-0.85,0.79,0.00
19820,0.17,1.00,-0.12,-1.10,0.98,0.12
19840,0.17,1.00,-0.11,-1.53,1.16,0.24
19860,0.18,1.00,-0.11,-1.04,1.34,0.18
19880,0.18,1.00,-0.11,-0.73,1.10,0.31
19900,0.18,0.99,-0.12,-0.31,1.22,0.18
19920,0.17,1.00,-0.11,-0.49,1.22,0.24
19940,0.16,1.00,-0.11,-0.43,1.10,0.31
19960,0.17,1.00,-0.11,-0.98,0.37,1.46
19980,0.17,1.00,-0.12,-1.65,-15.56,1.95
20000,0.18,0.99,-0.12,-1.83,-0.43,1.59
20020,0.19,0.99,-0.12,-2.01,-0.31,0.73
20040,0.18,1.00,-0.11,-2.81,0.12,0.24
20060,0.16,1.00,-0.11,-2.50,0.31,0.79
20080,0.17,1.00,-0.11,-3.36,-1.10,2.14
20100,0.17,1.00,-0.11,-4.27,-1.59,2.99
20120,0.18,1.00,-0.11,-5.98,-2.56,3.36
20140,0.19,1.00,-0.10,-5.98,-3.11,3.85
20160,0.18,1.00,-0.10,-5.92,-2.26,4.52
20180,0.19,1.00,-0.10,-6.90,-2.87,6.41
20200,0.19,1.00,-0.10,-8.00,-3.78,7.08
20220,0.19,1.00,-0.09,-9.03,-4.70,7.81
20240,0.19,1.01,-0.08,-8.91,-5.00,9.46
20260,0.21,1.01,-0.09,-8.00,-4.33,10.74
20280,0.21,1.01,-0.08,-7.08,-3.91,12.02
20300,0.21,1.01,-0.08,-5.98,-3.17,14.28
20320,0.19,1.05,-0.11,-4.33,-2.81,15.32
20340,0.22,1.02,-0.11,-3.05,-3.97,17.09
20360,0.23,1.02,-0.11,-3.42,-4.76,18.74
20380,0.22,1.09,-0.11,-6.29,-4.64,21.79
20400,0.23,1.08,-0.09,-7.87,-5.37,26.98
20420,0.25,1.07,-0.11,-8.97,-5.37,33.08
20440,0.25,1.06,-0.10,-12.39,-7.45,36.19
20460,0.29,1.03,-0.10,-15.20,-9.03,39.37
20480,0.29,1.01,-0.09,-16.66,-10.25,40.89
20500,0.32,0.97,-0.05,-19.41,-11.29,43.15
20520,0.36,0.91,-0.03,-20.94,-11.11,43.21
20540,0.38,0.89,-0.02,-21.91,-9.58,41.32
20560,0.39,0.86,0.01,-22.40,-6.47,36.93
20580,0.39,0.95,0.02,-21.24,-5.19,35.16
20600,0.43,0.89,0.01,-20.94,-5.07,35.83
20620,0.45,0.88,0.02,-19.90,-5.86,31.56
20640,0.44,0.89,0.03,-19.65,-3.30,30.27
20660,0.46,0.88,0.04,-18.49,-3.30,29.42
20680,0.46,0.87,0.07,-16.91,-2.32,27.77
20700,0.47,0.88,0.07,-16.48,-0.85,26.12
20720,0.49,0.88,0.05,-16.11,-0.92,24.96
20740,0.52,0.84,0.04,-16.42,0.24,21.55
20760,0.54,0.79,0.06,-15.75,0.06,17.46
20780,0.55,0.76,0.11,-13.31,0.00,11.60
20800,0.55,0.77,0.14,-10.56,0.92,1.65
20820,0.57,0.74,0.18,-3.66,1.71,-5.37
20840,0.58,0.68,0.13,1.83,3.91,-14.22
20860,0.54,0.76,0.09,5.86,5.43,-24.72
20880,0.51,0.85,0.08,12.76,2.50,-32.96
20900,0.48,0.87,0.12,16.42,2.81,-36.07
20920,0.46,0.90,0.13,18.92,2.14,-38.02
20940,0.44,0.92,0.09,23.80,2.81,-38.21
20960,0.40,0.98,0.04,27.59,5.49,-37.48
20980,0.41,0.93,-0.02,28.38,5.25,-33.57
21000,0.44,0.79,-0.11,21.97,5.43,-34.30
21020,0.40,0.89,-0.13,11.29,7.75,-39.25
21040,0.39,0.94,-0.05,2.44,3.42,-40.95
21060,0.32,1.03,0.07,1.22,2.01,-41.20
21080,0.32,0.98,0.13,8.30,3.54,-39.18
21100,0.28,1.03,0.11,16.78,7.14,-37.11
21120,0.31,0.99,-0.06,22.22,11.60,-32.78
21140,0.33,0.94,-0.12,18.68,13.49,-33.81
21160,0.35,0.90,-0.12,12.63,14.04,-37.84
21180,0.28,0.96,0.02,11.90,15.20,-44.68
21200,0.12,1.29,-0.05,20.32,17.40,-33.94
21220,0.22,1.13,-0.14,25.21,15.87,-15.93
21240,0.29,0.98,-0.24,20.87,14.89,-14.28
21260,0.27,0.99,-0.19,5.68,12.82,-19.65
21280,0.24,1.00,-0.08,2.56,12.51,-23.74
21300,0.12,1.10,-0.03,8.61,13.55,-24.84
21320,0.22,0.97,-0.17,7.75,2.38,-8.42
21340,0.23,0.98,-0.13,-1.83,1.28,-10.80
21360,0.23,0.99,-0.10,-3.17,0.12,-12.21
21380,0.21,1.00,-0.09,-0.18,0.73,-12.51
21400,0.21,1.00,-0.10,1.46,3.05,-13.18
21420,0.20,0.99,-0.11,2.08,4.46,-14.04
21440,0.15,1.00,-0.10,1.28,5.62,-12.08
21460,0.16,1.01,-0.09,0.43,0.61,-8.36
21480,0.18,1.00,-0.10,-0.37,-0.31,-4.70
21500,0.18,1.00,-0.11,-0.67,0.43,-3.11
21520,0.18,1.00,-0.11,0.00,0.79,-3.36
21540,0.18,1.00,-0.11,0.24,1.04,-4.03
21560,0.18,1.00,-0.11,0.43,1.71,-4.58
21580,0.18,1.00,-0.11,-0.06,1.53,-4.88
21600,0.17,1.00,-0.11,-0.18,1.28,-4.52
21620,0.17,1.00,-0.11,-0.61,1.46,-3.30
21640,0.17,1.00,-0.10,-0.43,0.92,-3.11
21660,0.17,1.00,-0.10,0.00,0.73,-2.38
21680,0.17,1.00,-0.11,0.73,1.22,-1.89
21700,0.17,1.00,-0.12,0.06,1.16,-1.77
21720,0.17,1.00,-0.11,-0.73,0.73,-1.16
21740,0.17,1.00,-0.11,-1.10,0.85,-1.22
21760,0.17,1.00,-0.11,-1.10,0.98,-1.46
21780,0.17,1.00,-0.11,-0.49,0.92,-0.98
21800,0.17,1.00,-0.11,-0.43,0.98,-1.04
21820,0.17,1.00,-0.11,-0.73,0.98,-0.55
21840,0.17,1.00,-0.11,-0.98,0.79,-0.49
21860,0.17,1.00,-0.11,-1.04,0.61,-0.55
21880,0.17,1.00,-0.11,-1.10,0.85,-0.92
21900,0.17,1.00,-0.11,-1.04,0.55,-0.67
21920,0.17,1.00,-0.11,-0.92,0.43,-0.73
21940,0.17,1.03,-0.11,-1.10,0.79,-0.61
21960,0.17,1.00,-0.11,-0.73,0.67,-0.49
21980,0.17,1.00,-0.11,-0.55,0.73,-0.31
22000,0.17,1.00,-0.11,-0.79,0.49,-0.24
22020,0.17,1.00,-0.11,-0.61,0.67,-0.24
22040,0.17,1.00,-0.11,-0.55,0.37,-0.06
22060,0.17,1.00,-0.11,-0.43,0.31,0.06
22080,0.17,1.00,-0.12,-0.43,0.31,0.37
22100,0.17,1.00,-0.11,-0.67,0.37,0.06
22120,0.17,1.00,-0.11,-0.55,0.00,0.31
22140,0.17,1.00,-0.11,-0.55,0.00,0.61
22160,0.16,1.00,-0.11,-0.67,-0.12,1.04
22180,0.17,1.00,-0.11,-0.79,-0.37,1.89
22200,0.17,1.00,-0.11,-0.67,-0.67,2.14
22220,0.16,1.01,-0.10,0.24,-0.79,2.26
22240,0.17,1.00,-0.11,1.46,-0.55,2.62
22260,0.17,1.00,-0.12,1.59,-0.79,3.23
22280,0.17,1.00,-0.12,0.37,-0.92,3.78
22300,0.18,0.99,-0.12,-1.71,-1.77,4.88
22320,0.19,1.00,-0.12,-3.97,-1.53,5.86
22340,0.19,1.00,-0.11,-3.97,-1.22,5.37
22360,0.19,1.00,-0.10,-3.60,-1.28,5.68
22380,0.18,1.01,-0.11,-3.60,-1.59,7.20
22400,0.20,1.00,-0.12,-3.72,-2.14,8.79
22420,0.21,0.99,-0.11,-5.55,-1.71,9.22
22440,0.22,0.99,-0.12,-7.08,-0.92,8.42
22460,0.21,1.01,-0.10,-6.41,-0.43,8.42
22480,0.20,1.01,-0.10,-5.68,-0.67,10.07
22500,0.20,1.03,-0.10,-4.94,-1.53,13.37
22520,0.22,1.01,-0.12,-3.78,-2.50,15.32
22540,0.22,1.01,-0.12,-5.19,-3.30,16.48
22560,0.23,1.03,-0.13,-6.53,-3.78,17.76
22580,0.24,1.03,-0.11,-9.16,-3.91,19.23
22600,0.26,1.02,-0.10,-10.44,-3.23,20.75
22620,0.25,1.02,-0.12,-10.25,-2.81,22.09
22640,0.25,1.08,-0.11,-13.18,-5.13,25.70
22660,0.26,1.06,-0.07,-13.67,-7.32,30.33
22680,0.26,1.07,-0.07,-13.85,-7.20,34.06
22700,0.29,1.04,-0.09,-14.77,-8.91,39.55
22720,0.33,0.98,-0.08,-16.54,-10.13,41.87
22740,0.34,0.97,-0.08,-19.17,-8.61,41.93
22760,0.36,0.92,-0.05,-23.38,-7.87,41.14
22780,0.37,0.93,-0.00,-24.11,-7.20,39.86
22800,0.41,0.89,0.02,-23.62,-7.08,40.16
22820,0.43,0.83,0.03,-21.42,-3.78,37.17
22840,0.44,0.86,0.03,-19.53,-3.72,31.80
22860,0.46,0.85,0.05,-16.66,-3.72,30.15
22880,0.47,0.87,0.05,-14.53,-2.50,25.09
22900,0.47,0.88,0.04,-12.33,-1.77,24.35
22920,0.48,0.88,0.03,-11.35,-1.34,22.52
22940,0.49,0.87,0.04,-10.68,-1.53,20.26
22960,0.52,0.82,0.04,-8.85,-1.16,17.46
22980,0.53,0.81,0.06,-7.57,-0.79,13.79
23000,0.54,0.80,0.09,-5.19,-0.43,8.79
23020,0.55,0.75,0.11,-0.31,2.38,-0.92
23040,0.56,0.73,0.10,3.36,3.78,-8.85
23060,0.53,0.77,0.06,5.80,5.92,-17.82
23080,0.50,0.85,0.06,11.35,4.64,-26.73
23100,0.48,0.89,0.06,14.71,4.15,-29.72
23120,0.46,0.92,0.03,17.76,4.03,-30.82
23140,0.45,0.93,0.04,20.02,2.38,-28.81
23160,0.45,0.90,-0.04,19.59,5.31,-27.83
23180,0.43,0.93,-0.05,18.07,5.25,-27.95
23200,0.40,0.98,-0.04,16.17,3.66,-25.15
23220,0.40,0.97,-0.02,14.16,1.34,-21.61
23240,0.40,0.93,-0.05,12.21,2.20,-20.02
23260,0.43,0.88,-0.07,7.63,4.27,-22.64
23280,0.43,0.88,-0.05,5.25,5.49,-26.79
23300,0.38,0.93,-0.00,6.23,5.86,-30.09
23320,0.35,0.94,0.07,9.95,5.49,-30.76
23340,0.34,0.93,-0.01,16.36,7.69,-29.66
23360,0.36,0.89,-0.09,14.77,9.83,-30.21
23380,0.32,0.97,-0.11,12.57,12.15,-34.67
23400,0.28,0.98,-0.05,11.72,12.76,-34.97
23420,0.26,1.04,-0.02,14.53,10.99,-32.41
23440,0.28,0.99,-0.10,15.99,11.47,-27.47
23460,0.31,0.98,-0.20,9.40,13.55,-28.81
23480,0.30,1.05,-0.19,2.32,13.85,-31.43
23500,0.26,1.03,-0.13,-1.95,14.71,-32.10
23520,0.13,1.12,-0.15,-2.01,19.59,-31.80
23540,0.15,1.10,-0.14,-1.34,8.97,-21.85
23560,0.18,1.07,-0.11,-0.61,5.49,-14.40
23580,0.23,1.00,-0.11,-1.83,2.32,-9.03
23600,0.25,0.96,-0.11,-3.17,4.21,-10.13
23620,0.26,0.96,-0.13,-3.42,7.20,-13.92
23640,0.26,0.95,-0.10,-0.49,12.02,-21.42
23660,0.10,1.05,-0.05,3.78,10.13,-22.95
23680,0.13,1.05,-0.07,6.04,1.83,-14.71
23700,0.18,1.00,-0.11,-0.43,0.18,-6.47
23720,0.18,1.00,-0.10,-1.53,0.85,-5.98
23740,0.19,1.00,-0.09,-0.37,1.83,-4.64
23760,0.20,0.99,-0.11,-0.06,1.28,-4.15
23780,0.19,0.99,-0.11,-0.67,3.66,-4.52
23800,0.18,1.00,-0.11,-0.73,3.17,-5.98
23820,0.17,1.00,-0.11,-0.92,3.30,-6.29
23840,0.16,1.00,-0.11,-1.34,2.08,-4.64
23860,0.17,1.00,-0.10,-1.59,0.61,-3.42
23880,0.17,1.00,-0.11,-0.92,0.85,-2.93
23900,0.17,1.00,-0.11,-1.34,1.22,-2.14
23920,0.17,1.00,-0.11,-1.40,0.92,-2.01
23940,0.17,1.00,-0.11,-0.67,0.79,-1.89
23960,0.17,1.00,-0.11,-0.12,0.98,-1.34
23980,0.17,1.00,-0.11,0.43,1.22,-1.10
24000,0.17,1.00,-0.11,0.92,1.40,-0.98
24020,0.17,1.00,-0.11,0.49,1.16,-0.92
24040,0.17,1.00,-0.11,-0.37,1.04,-0.98
24060,0.17,1.00,-0.11,-0.85,0.92,-0.79
24080,0.17,1.00,-0.11,-1.22,0.61,-0.85
24100,0.17,1.00,-0.11,-1.04,0.55,-0.79
24120,0.17,1.00,-0.11,-1.28,0.55,-0.85
24140,0.17,1.00,-0.11,-1.46,0.49,-0.79
24160,0.17,1.00,-0.11,-1.46,0.61,-0.79
24180,0.17,1.00,-0.11,-1.77,0.55,-0.67
24200,0.17,1.00,-0.11,-1.71,0.55,-0.67
24220,0.17,1.00,-0.11,-1.28,0.55,-0.24
24240,0.17,1.00,-0.11,-0.98,0.73,-0.37
24260,0.17,1.00,-0.11,-0.73,0.67,-0.18
24280,0.17,1.00,-0.11,-0.61,0.67,-0.37
24300,0.17,1.00,-0.11,-0.98,0.73,-0.49
24320,0.17,1.00,-0.11,-1.34,0.73,-0.49
24340,0.17,1.00,-0.11,-1.16,1.04,-0.55
24360,0.17,1.00,-0.11,-1.10,0.73,-0.49
24380,0.17,1.00,-0.11,-0.79,1.04,-0.24
24400,0.17,1.00,-0.11,-0.73,1.04,-0.43
24420,0.17,1.00,-0.11,-0.92,0.85,-0.18
24440,0.17,1.00,-0.12,-0.85,0.92,-0.18
24460,0.17,1.00,-0.12,-1.22,0.55,-0.12
24480,0.17,1.00,-0.11,-1.10,0.67,0.06
24500,0.17,1.00,-0.11,-1.22,0.92,-0.12
24520,0.16,1.00,-0.11,-0.85,0.43,0.24
24540,0.17,1.00,-0.11,-0.79,0.37,0.67
24560,0.17,1.00,-0.11,-0.55,0.31,0.79
24580,0.18,1.00,-0.12,-0.49,0.12,0.79
24600,0.17,1.00,-0.11,-0.49,0.37,0.49
24620,0.17,1.00,-0.11,-0.18,0.12,0.98
24640,0.16,1.01,-0.10,-0.24,-0.43,1.95
24660,0.16,1.01,-0.10,0.24,-1.77,3.85
24680,0.18,1.00,-0.11,0.00,-2.81,5.43
24700,0.18,0.99,-0.12,-0.12,-2.56,5.37
24720,0.17,1.00,-0.11,-0.98,-2.62,5.80
24740,0.18,1.01,-0.10,-2.20,-3.91,8.06
24760,0.18,1.02,-0.10,-1.77,-3.78,10.50
24780,0.19,1.01,-0.12,-2.14,-3.97,13.49
24800,0.20,1.02,-0.11,-3.54,-4.94,16.42
24820,0.21,1.02,-0.12,-3.54,-4.33,18.43
24840,0.22,1.00,-0.16,-3.60,-3.48,18.86
24860,0.24,0.99,-0.12,-5.13,-4.21,18.31
24880,0.23,1.00,-0.13,-5.13,-2.56,17.52
24900,0.26,0.98,-0.12,-6.71,-2.81,16.48
24920,0.26,0.98,-0.11,-7.51,-1.95,15.93
24940,0.24,1.03,-0.13,-9.28,-1.34,16.36
24960,0.25,1.03,-0.12,-10.25,-2.81,20.02
24980,0.26,1.04,-0.11,-11.41,-3.72,22.83
25000,0.27,1.02,-0.10,-13.06,-4.09,25.15
25020,0.29,0.99,-0.10,-14.59,-4.09,26.67
25040,0.30,0.98,-0.09,-16.60,-4.76,27.28
25060,0.32,0.97,-0.08,-19.29,-4.94,27.71
25080,0.32,0.99,-0.07,-20.75,-5.13,28.20
25100,0.34,0.96,-0.05,-21.12,-4.15,29.36
25120,0.35,0.95,-0.02,-21.24,-4.82,29.54
25140,0.36,0.96,-0.02,-21.30,-4.15,30.15
25160,0.39,0.91,0.01,-19.84,-3.54,30.58
25180,0.39,0.91,-0.01,-19.17,-1.89,29.24
25200,0.41,0.90,0.01,-18.98,-2.56,28.08
25220,0.42,0.90,-0.01,-19.29,-3.17,25.63
25240,0.42,0.92,0.00,-18.86,-3.42,25.21
25260,0.44,0.88,0.02,-19.53,-3.54,24.54
25280,0.44,0.93,0.04,-18.68,-2.69,22.46
25300,0.45,0.93,0.07,-17.15,-3.54,23.44
25320,0.46,0.91,0.07,-15.63,-2.56,23.80
25340,0.48,0.90,0.08,-12.94,-2.75,24.05
25360,0.48,0.90,0.07,-10.99,-2.08,22.71
25380,0.50,0.86,0.06,-10.01,-2.32,22.28
25400,0.53,0.82,0.05,-9.95,-1.53,17.76
25420,0.55,0.76,0.06,-8.12,-0.61,11.72
25440,0.57,0.73,0.12,-5.00,-0.37,4.09
25460,0.57,0.73,0.16,-0.24,1.10,-4.52
25480,0.55,0.75,0.15,6.90,2.81,-18.37
25500,0.52,0.81,0.12,10.80,3.36,-26.37
25520,0.50,0.86,0.05,13.61,4.39,-30.58
25540,0.48,0.87,0.04,16.78,2.62,-33.20
25560,0.48,0.83,0.02,17.70,3.17,-35.46
25580,0.49,0.80,0.05,18.19,2.14,-39.61
25600,0.39,1.00,0.02,18.37,1.95,-42.66
25620,0.35,1.07,0.07,21.06,-0.73,-37.11
25640,0.38,1.00,0.05,23.50,-0.73,-29.36
25660,0.44,0.79,0.00,24.11,4.52,-28.87
25680,0.37,0.84,-0.08,20.45,10.56,-35.22
25700,0.38,0.93,-0.13,12.51,8.54,-38.15
25720,0.29,1.11,-0.01,9.16,4.46,-34.30
25740,0.34,0.94,0.01,9.89,5.43,-30.09
25760,0.33,0.91,0.02,11.90,8.48,-32.90
25780,0.29,0.99,-0.04,12.33,10.25,-33.75
25800,0.29,0.99,-0.08,11.23,9.34,-32.71
25820,0.29,1.00,-0.08,10.44,9.58,-33.51
25840,0.33,0.94,-0.06,10.25,11.60,-37.23
25860,0.20,1.16,-0.08,9.40,19.04,-39.67
25880,0.14,1.19,-0.11,13.00,16.66,-27.28
25900,0.16,1.08,-0.18,12.94,13.06,-15.32
25920,0.26,1.00,-0.14,6.41,6.16,-11.96
25940,0.28,0.96,-0.11,0.92,7.45,-13.43
25960,0.27,0.96,-0.12,-0.67,11.66,-18.55
25980,0.16,1.05,-0.07,4.46,12.33,-23.38
26000,0.14,1.04,-0.06,8.48,5.43,-18.80
26020,0.20,1.01,-0.11,6.16,2.08,-13.06
26040,0.19,1.00,-0.11,-0.31,1.71,-10.93
26060,0.19,1.00,-0.10,-0.98,1.89,-10.01
26080,0.19,1.00,-0.10,-0.06,2.56,-8.42
26100,0.16,1.00,-0.11,0.61,3.85,-7.81
26120,0.17,1.00,-0.11,0.73,2.44,-7.87
26140,0.17,1.00,-0.10,-0.37,1.71,-6.96
26160,0.17,1.00,-0.11,-0.73,0.73,-5.07
26180,0.17,1.00,-0.10,-0.37,0.06,-4.15
26200,0.17,1.00,-0.10,-0.12,0.24,-2.87
26220,0.17,1.00,-0.10,-0.37,0.43,-2.08
26240,0.17,1.00,-0.10,-1.40,0.24,-1.65
26260,0.18,1.00,-0.10,-0.67,0.31,-1.34
26280,0.18,1.00,-0.11,-0.24,0.37,-0.92
26300,0.17,1.00,-0.11,-0.43,0.31,-0.98
26320,0.17,1.00,-0.11,0.00,0.37,-0.73
26340,0.17,1.00,-0.11,0.18,0.55,-0.85
26360,0.17,1.00,-0.11,-0.18,0.37,-0.85
26380,0.18,1.00,-0.11,-0.55,0.24,-0.98
26400,0.17,1.00,-0.11,-0.73,0.49,-0.73
26420,0.17,1.00,-0.11,-0.12,0.37,-0.55
26440,0.18,1.00,-0.11,0.24,0.37,-0.49
26460,0.17,1.00,-0.11,0.00,0.73,-0.67
26480,0.17,1.00,-0.11,-0.73,0.24,-0.61
26500,0.17,1.00,-0.11,-1.16,0.24,-0.55
26520,0.17,1.00,-0.11,-0.98,0.43,-0.67
26540,0.17,1.03,-0.11,-1.16,0.43,-0.67
26560,0.18,1.00,-0.11,-1.28,0.43,-0.43
26580,0.18,1.00,-0.11,-1.40,0.37,-0.31
26600,0.17,1.00,-0.10,-0.98,0.55,-0.24
26620,0.17,1.00,-0.11,-0.73,0.55,-0.24
26640,0.18,1.00,-0.11,-0.24,0.61,-0.24
26660,0.17,1.00,-0.11,-0.61,0.67,-0.31
26680,0.18,1.00,-0.11,-1.04,0.67,-0.37
26700,0.17,1.00,-0.11,-1.59,0.92,-0.31
26720,0.18,1.00,-0.11,-1.71,0.85,-0.18
26740,0.18,1.00,-0.11,-0.49,0.85,-0.12
26760,0.18,1.00,-0.11,-0.43,1.04,-0.06
26780,0.17,1.00,-0.11,-0.49,0.79,-0.12
26800,0.17,1.00,-0.11,-1.53,0.92,-0.06
26820,0.17,1.00,-0.11,-1.89,1.04,-0.43
26840,0.17,1.00,-0.11,-2.44,0.49,-0.18
26860,0.18,1.00,-0.11,-2.81,0.24,-0.49
26880,0.18,1.00,-0.11,-2.75,0.24,-0.18
26900,0.18,1.00,-0.11,-2.69,0.00,-0.06
26920,0.18,1.00,-0.11,-2.93,0.06,-0.06
26940,0.16,1.00,-0.10,-2.93,-0.37,0.37
26960,0.17,1.00,-0.10,-3.30,-1.34,1.46
26980,0.17,1.00,-0.10,-4.76,-2.93,2.38
27000,0.18,1.00,-0.10,-5.07,-2.69,2.20
27020,0.18,1.00,-0.10,-5.00,-2.69,2.20
27040,0.18,1.00,-0.09,-6.04,-2.99,2.69
27060,0.18,1.00,-0.09,-6.59,-3.97,4.46
27080,0.19,1.00,-0.09,-7.39,-3.66,5.31
27100,0.19,1.00,-0.09,-7.32,-3.72,6.35
27120,0.19,1.00,-0.08,-7.87,-3.85,7.51
27140,0.21,0.99,-0.08,-8.06,-3.23,8.36
27160,0.21,1.00,-0.08,-8.00,-2.14,7.93
27180,0.20,1.01,-0.08,-7.69,-1.46,7.87
27200,0.22,1.00,-0.07,-7.87,-1.83,9.70
27220,0.21,1.01,-0.07,-7.14,-1.04,9.58
27240,0.21,1.01,-0.09,-7.20,-1.04,10.50
27260,0.20,1.03,-0.11,-7.02,-1.59,11.05
27280,0.20,1.05,-0.10,-7.51,-2.56,12.15
27300,0.23,1.03,-0.08,-6.84,-3.72,16.11
27320,0.23,1.09,-0.08,-8.24,-3.05,17.09
27340,0.24,1.05,-0.08,-9.34,-2.99,21.18
27360,0.28,1.03,-0.10,-13.06,-2.14,24.78
27380,0.25,1.05,-0.09,-15.63,-2.01,26.43
27400,0.27,1.02,-0.04,-17.94,-4.58,29.85
27420,0.27,1.05,-0.04,-17.58,-4.52,33.51
27440,0.30,1.01,-0.01,-15.99,-5.74,37.48
27460,0.32,0.97,-0.01,-15.44,-4.52,39.12
27480,0.32,0.98,-0.03,-14.89,-2.62,39.92
27500,0.33,1.00,-0.00,-14.40,-2.32,42.48
27520,0.34,0.99,0.03,-12.76,-1.22,46.75
27540,0.38,0.94,0.02,-11.66,-0.37,48.83
27560,0.43,0.84,0.00,-13.73,0.43,46.81
27580,0.44,0.86,-0.02,-15.87,1.65,42.42
27600,0.47,0.82,0.02,-16.42,-3.72,37.90
27620,0.48,0.88,0.04,-16.42,-3.05,32.35
27640,0.47,0.90,0.07,-15.44,-3.11,30.82
27660,0.50,0.87,0.06,-14.77,-2.69,29.91
27680,0.52,0.86,0.06,-13.18,-1.95,25.45
27700,0.52,0.84,0.11,-9.70,-1.83,21.67
27720,0.56,0.78,0.16,-4.70,-3.54,17.46
27740,0.54,0.80,0.14,0.73,-1.89,9.22
27760,0.55,0.77,0.07,2.14,-0.37,4.82
27780,0.58,0.71,0.02,2.01,0.61,-0.55
27800,0.58,0.67,0.01,1.46,2.99,-14.53
27820,0.52,0.82,0.04,1.28,3.42,-24.54
27840,0.51,0.86,0.16,5.74,0.00,-28.87
27860,0.48,0.89,0.16,13.55,1.16,-30.82
27880,0.48,0.89,0.07,17.52,2.69,-31.31
27900,0.49,0.85,-0.02,18.25,4.33,-31.49
27920,0.50,0.85,-0.03,16.42,5.07,-37.84
27940,0.43,0.91,0.05,16.91,2.75,-40.28
27960,0.36,1.01,0.04,18.62,2.38,-38.88
27980,0.42,0.93,-0.02,18.49,-0.37,-32.47
28000,0.44,0.84,-0.06,14.28,2.44,-34.55
28020,0.42,0.92,-0.04,10.50,5.07,-39.31
28040,0.35,1.00,0.03,10.80,4.88,-40.89
28060,0.29,1.05,0.06,16.17,4.15,-32.29
28080,0.34,0.96,-0.03,18.25,5.49,-25.51
28100,0.38,0.85,-0.12,15.56,8.18,-26.73
28120,0.34,0.91,-0.11,6.53,10.86,-37.54
28140,0.22,1.12,-0.01,5.98,8.67,-38.94
28160,0.22,1.14,0.05,10.07,3.11,-28.87
28180,0.32,0.92,-0.10,14.04,9.22,-20.26
28200,0.35,0.87,-0.13,11.84,11.29,-26.06
28220,0.36,0.85,-0.13,6.53,15.81,-35.95
28240,0.29,1.08,-0.14,3.91,25.02,-46.75
28260,0.07,1.19,-0.14,8.06,17.46,-32.10
28280,0.26,1.03,-0.11,12.63,7.20,-16.85
28300,0.24,1.03,-0.14,5.80,10.25,-16.48
28320,0.19,1.05,-0.05,4.94,9.83,-14.95
28340,0.21,1.01,-0.08,6.35,10.31,-12.57
28360,0.20,0.99,-0.11,6.23,10.07,-12.57
28380,0.19,0.99,-0.13,3.42,7.39,-12.51
28400,0.18,0.99,-0.12,1.46,4.64,-12.76
28420,0.17,1.00,-0.11,0.37,2.08,-12.21
28440,0.17,1.00,-0.10,-0.79,0.24,-9.95
28460,0.16,1.00,-0.11,-1.46,0.18,-8.36
28480,0.17,1.00,-0.10,-1.16,1.46,-6.10
28500,0.17,1.00,-0.10,1.34,-0.43,-3.85
28520,0.17,1.00,-0.11,1.59,2.01,-1.83
28540,0.18,0.99,-0.12,0.79,1.28,-1.10
28560,0.18,1.00,-0.11,0.55,0.67,-1.16
28580,0.18,1.00,-0.11,0.67,1.16,-1.22
28600,0.18,1.00,-0.12,0.85,1.16,-1.34
28620,0.18,1.00,-0.12,0.61,1.16,-1.16
28640,0.17,1.00,-0.11,0.37,1.28,-1.04
28660,0.17,1.00,-0.12,0.61,1.16,-0.61
28680,0.17,1.00,-0.12,-0.31,0.98,-0.85
28700,0.18,1.00,-0.12,-0.55,0.67,-0.73
28720,0.18,1.00,-0.12,-0.61,0.61,-0.79
28740,0.17,1.00,-0.12,-0.55,0.67,-0.67
28760,0.18,1.00,-0.12,-0.92,0.67,-0.73
28780,0.17,1.00,-0.12,-1.16,0.55,-0.55
28800,0.18,1.00,-0.12,-1.40,0.61,-0.49
28820,0.18,1.00,-0.12,-1.65,0.55,-0.61
28840,0.18,1.00,-0.12,-1.53,0.61,-0.43
28860,0.18,1.00,-0.11,-1.10,0.73,-0.49
28880,0.18,1.00,-0.12,-0.85,0.92,-0.61
28900,0.18,1.00,-0.11,-0.73,0.61,-0.37
28920,0.18,1.00,-0.12,-0.67,0.67,-0.37
28940,0.18,1.00,-0.12,-0.67,0.67,-0.06
28960,0.18,1.00,-0.12,-0.79,0.73,-0.12
28980,0.18,1.00,-0.12,-0.49,0.92,-0.24
29000,0.18,1.00,-0.11,-0.12,0.98,-0.06
29020,0.18,1.00,-0.12,0.49,1.16,0.12
29040,0.18,0.99,-0.12,0.31,1.22,-0.18
29060,0.18,0.99,-0.12,-0.85,0.85,-0.12
29080,0.17,1.00,-0.12,-1.53,0.67,-0.06
29100,0.18,0.99,-0.12,-2.50,0.18,-0.12
29120,0.18,1.00,-0.12,-2.50,0.12,-0.18
29140,0.17,1.00,-0.11,-2.26,0.49,-0.24
29160,0.18,1.00,-0.12,-2.01,0.24,-0.24
29180,0.17,1.00,-0.11,-2.32,-0.12,0.43
29200,0.16,1.00,-0.11,-2.50,-0.92,1.34
29220,0.17,1.00,-0.11,-3.05,-2.08,2.20
29240,0.17,1.01,-0.11,-3.91,-3.23,3.36
29260,0.18,1.00,-0.11,-4.21,-4.03,4.94
29280,0.18,1.00,-0.11,-5.00,-4.27,5.55
29300,0.18,1.01,-0.10,-5.62,-4.64,7.39
29320,0.20,1.00,-0.11,-5.74,-4.21,9.95
29340,0.20,1.00,-0.10,-6.23,-3.72,10.56
29360,0.20,1.01,-0.10,-5.68,-3.23,11.54
29380,0.20,1.01,-0.09,-5.49,-3.05,13.73
29400,0.21,1.02,-0.10,-5.07,-2.99,15.56
29420,0.22,1.02,-0.12,-4.94,-2.93,17.09
29440,0.21,1.04,-0.13,-5.00,-4.33,18.92
29460,0.23,1.05,-0.11,-5.49,-6.47,20.57
29480,0.25,1.03,-0.13,-5.13,-6.10,22.89
29500,0.25,1.03,-0.09,-7.57,-5.37,25.63
29520,0.25,1.04,-0.11,-9.52,-4.09,26.73
29540,0.27,1.04,-0.09,-11.11,-5.43,29.36
29560,0.25,1.06,-0.08,-12.21,-7.14,33.75
29580,0.30,0.99,-0.08,-12.88,-6.65,35.64
29600,0.30,1.00,-0.09,-14.34,-6.96,35.64
29620,0.33,0.97,-0.08,-16.30,-8.06,36.87
29640,0.35,0.94,-0.06,-19.04,-9.03,37.17
29660,0.37,0.93,-0.04,-21.06,-8.00,36.50
29680,0.37,0.94,-0.00,-22.40,-7.57,36.07
29700,0.39,0.93,0.00,-21.91,-5.37,36.93
29720,0.41,0.93,-0.00,-21.61,-4.03,36.44
29740,0.43,0.90,0.00,-21.24,-6.10,35.71
29760,0.45,0.88,0.01,-20.57,-4.82,34.48
29780,0.46,0.87,0.04,-20.02,-4.76,32.96
29800,0.49,0.86,0.06,-18.62,-3.91,31.43
29820,0.50,0.85,0.07,-15.87,-2.75,27.59
29840,0.51,0.83,0.07,-14.16,-2.14,24.48
29860,0.53,0.80,0.06,-12.02,-1.04,20.39
29880,0.54,0.78,0.07,-9.03,-0.49,12.63
29900,0.55,0.78,0.09,-6.16,-0.49,6.65
29920,0.55,0.78,0.10,-3.78,0.24,1.28
29940,0.55,0.77,0.12,0.61,2.69,-8.06
29960,0.54,0.79,0.08,3.23,3.60,-14.04
29980,0.51,0.85,0.06,5.00,4.03,-19.35
30000,0.51,0.87,0.07,7.45,3.54,-23.25
30020,0.50,0.87,0.10,10.68,3.23,-25.15
30040,0.46,0.90,0.07,13.61,4.76,-27.04
30060,0.48,0.85,0.04,14.65,4.03,-27.16
30080,0.44,0.93,-0.02,13.92,4.64,-32.35
30100,0.45,0.92,0.04,14.59,1.40,-32.04
30120,0.42,0.91,0.03,14.59,3.36,-32.17
30140,0.42,0.89,-0.02,15.63,3.54,-32.90
30160,0.41,0.89,-0.05,13.24,3.30,-33.33
30180,0.42,0.90,-0.06,9.70,3.36,-35.89
30200,0.40,0.87,0.03,6.90,4.03,-39.67
30220,0.33,0.94,0.05,8.06,7.45,-43.52
30240,0.29,1.04,0.01,11.23,5.68,-41.56
30260,0.32,1.00,-0.01,14.59,6.53,-35.34
30280,0.32,0.98,-0.07,15.75,9.16,-35.71
30300,0.33,0.90,-0.04,14.59,10.31,-37.72
30320,0.24,1.04,-0.03,15.93,10.99,-38.21
30340,0.23,1.12,-0.05,19.04,6.71,-25.57
30360,0.28,1.05,-0.14,18.49,10.38,-19.71
30380,0.28,1.00,-0.21,9.09,10.80,-22.52
30400,0.31,0.94,-0.17,1.71,11.23,-25.51
30420,0.18,1.09,-0.10,-3.17,13.43,-28.99
30440,0.14,1.13,-0.03,0.55,5.92,-14.83
30460,0.24,0.99,-0.10,3.36,2.87,-9.52
30480,0.25,0.97,-0.11,2.44,4.76,-11.90
30500,0.26,0.97,-0.13,2.08,8.00,-14.53
30520,0.22,1.00,-0.10,2.62,11.23,-21.18
30540,0.20,1.01,-0.08,6.29,10.01,-22.58
30560,0.15,1.03,-0.08,7.02,9.40,-21.48
30580,0.14,1.01,-0.11,3.30,6.47,-13.73
30600,0.16,1.00,-0.09,1.16,2.08,-10.62
30620,0.16,1.01,-0.08,0.85,1.77,-8.54
30640,0.16,1.00,-0.10,0.49,2.99,-4.21
30660,0.17,1.00,-0.11,0.67,1.53,-2.87
30680,0.17,1.00,-0.11,0.31,1.10,-2.81
30700,0.17,1.00,-0.11,0.43,0.92,-2.87
30720,0.17,1.00,-0.10,0.85,0.92,-2.26
30740,0.17,1.00,-0.11,1.16,0.85,-1.28
30760,0.17,1.00,-0.11,0.43,0.37,-1.04
30780,0.17,1.00,-0.11,0.43,0.55,-0.85
30800,0.17,1.00,-0.11,0.12,0.43,-1.16
30820,0.17,1.00,-0.11,0.12,0.55,-0.85
30840,0.17,1.00,-0.11,-0.06,0.79,-0.85
30860,0.17,1.00,-0.11,-0.24,0.55,-0.67
30880,0.17,1.00,-0.11,-0.37,0.49,-0.55
30900,0.17,1.00,-0.11,-0.55,0.49,-0.61
30920,0.17,1.00,-0.11,-0.85,0.49,-0.43
30940,0.17,1.00,-0.11,-1.22,0.55,-0.49
30960,0.17,1.00,-0.11,-1.22,0.79,-0.61
30980,0.17,1.00,-0.11,-1.04,0.85,-0.55
31000,0.17,1.00,-0.11,-1.46,0.73,-0.79
31020,0.17,1.00,-0.11,-2.26,0.67,-0.73
31040,0.17,1.00,-0.11,-2.20,0.37,-0.85
31060,0.17,1.00,-0.11,-2.87,0.55,-0.79
31080,0.17,1.00,-0.11,-2.38,0.24,-1.04
31100,0.17,1.00,-0.11,-1.65,0.49,-1.10
31120,0.17,1.00,-0.11,-1.77,0.31,-0.85
31140,0.17,1.00,-0.11,-1.89,0.37,-0.79
31160,0.17,1.00,-0.10,-1.65,0.37,-0.73
31180,0.17,1.00,-0.11,-1.34,0.24,-0.55
31200,0.17,1.00,-0.11,-1.40,0.18,-0.55
31220,0.17,1.00,-0.11,-1.28,-0.06,-0.24
31240,0.17,1.00,-0.10,-1.59,-0.06,0.06
31260,0.17,1.00,-0.11,-1.65,-0.06,-0.06
31280,0.17,1.00,-0.11,-1.46,0.18,-0.12
31300,0.17,1.00,-0.10,-1.22,0.18,0.18
31320,0.16,1.00,-0.10,-0.79,-0.18,1.10
31340,0.16,1.00,-0.10,-1.04,-0.49,1.95
31360,0.18,1.00,-0.10,-1.40,-1.34,2.32
31380,0.17,1.00,-0.10,-1.65,-0.73,2.32
31400,0.18,1.00,-0.11,-2.26,-0.92,2.62
31420,0.18,1.00,-0.10,-2.20,-0.55,2.44
31440,0.17,1.00,-0.10,-2.08,-0.18,2.32
31460,0.16,1.00,-0.10,-2.20,-0.61,3.23
31480,0.18,1.00,-0.10,-2.99,-1.77,5.62
31500,0.18,1.00,-0.11,-3.23,-1.10,5.98
31520,0.19,1.00,-0.10,-5.31,-1.95,7.26
31540,0.20,1.00,-0.10,-5.98,-1.53,8.30
31560,0.20,1.00,-0.10,-5.68,-0.67,8.42
31580,0.18,1.02,-0.08,-5.68,-1.28,10.86
31600,0.21,1.01,-0.08,-5.62,-2.14,14.83
31620,0.21,1.01,-0.11,-4.46,-1.04,15.56
31640,0.21,1.02,-0.12,-5.55,-1.04,17.58
31660,0.22,1.03,-0.11,-6.16,-3.42,18.86
31680,0.25,1.01,-0.08,-4.39,-3.85,19.35
31700,0.25,1.04,-0.11,-4.15,-2.75,19.90
31720,0.25,1.00,-0.12,-6.71,-2.50,20.63
31740,0.26,1.02,-0.14,-10.38,-1.46,20.51
31760,0.25,1.05,-0.11,-13.43,-2.93,21.97
31780,0.25,1.08,-0.09,-15.99,-4.82,28.32
31800,0.27,1.05,-0.08,-16.72,-5.25,32.53
31820,0.27,1.07,-0.08,-17.46,-4.94,35.46
31840,0.32,0.97,-0.05,-18.74,-5.86,41.75
31860,0.34,0.96,-0.06,-19.90,-4.21,41.81
31880,0.34,0.97,-0.02,-21.30,-5.19,42.24
31900,0.37,0.94,-0.01,-21.73,-4.09,44.43
31920,0.39,0.94,0.01,-21.18,-3.91,44.56
31940,0.41,0.91,0.01,-19.96,-3.85,44.13
31960,0.45,0.86,0.03,-18.92,-6.10,40.83
31980,0.47,0.83,0.03,-17.64,-5.49,37.23
32000,0.49,0.81,0.05,-15.38,-5.92,33.39
32020,0.49,0.82,0.07,-11.47,-4.58,25.45
32040,0.51,0.82,0.07,-9.40,-3.78,21.24
32060,0.51,0.83,0.07,-7.08,-2.99,16.48
32080,0.52,0.83,0.06,-4.94,-1.77,11.23
32100,0.52,0.83,0.04,-4.15,-1.46,7.93
32120,0.52,0.84,0.05,-3.17,-0.49,4.09
32140,0.53,0.82,0.10,-1.40,0.06,-0.67
32160,0.52,0.81,0.09,1.71,2.38,-5.31
32180,0.51,0.84,0.03,3.78,3.36,-8.79
32200,0.51,0.86,0.04,4.94,2.75,-11.17
32220,0.51,0.85,0.03,6.77,2.32,-15.26
32240,0.51,0.83,0.06,7.81,2.50,-19.35
32260,0.49,0.83,0.09,9.52,3.23,-23.93
32280,0.48,0.82,0.03,11.78,4.88,-29.42
32300,0.45,0.88,-0.02,13.06,5.19,-33.14
32320,0.46,0.87,0.03,14.77,3.05,-35.16
32340,0.45,0.82,0.02,17.76,5.49,-41.44
32360,0.41,0.82,0.02,18.25,5.55,-46.26
32380,0.39,0.89,-0.06,15.63,5.55,-48.77
32400,0.32,1.11,-0.02,12.94,3.17,-47.36
32420,0.37,0.94,0.01,14.40,3.85,-39.12
32440,0.34,0.89,-0.00,16.36,10.74,-41.02
32460,0.26,1.01,-0.04,16.30,11.66,-40.53
32480,0.28,1.06,-0.09,15.69,9.64,-33.14
32500,0.31,0.98,-0.10,14.53,10.01,-30.09
32520,0.35,0.90,-0.10,12.76,15.44,-38.51
32540,0.32,0.99,-0.05,10.07,23.44,-51.70
32560,0.00,1.39,-0.11,17.03,29.60,-47.85
32580,0.10,1.15,-0.26,22.28,20.20,-22.64
32600,0.23,1.01,-0.19,11.60,7.14,-15.63
32620,0.25,1.01,-0.12,4.39,7.69,-15.93
32640,0.20,1.03,-0.08,1.10,9.64,-15.93
32660,0.21,1.00,-0.10,3.54,10.50,-13.73
32680,0.21,0.98,-0.13,4.03,9.58,-14.59
32700,0.20,0.99,-0.14,3.30,7.81,-15.44
32720,0.17,1.00,-0.12,0.67,3.78,-14.40
32740,0.17,1.00,-0.11,-0.92,2.26,-12.21
32760,0.17,1.00,-0.10,-2.01,1.34,-9.70
32780,0.17,1.00,-0.11,-1.71,1.71,-6.47
32800,0.17,1.00,-0.10,-0.98,-0.55,-4.94
32820,0.18,1.00,-0.11,0.31,-0.12,-3.72
32840,0.18,0.99,-0.12,-0.49,0.43,-2.44
32860,0.19,1.00,-0.11,0.79,-0.06,-2.08
32880,0.18,0.99,-0.12,1.40,0.73,-1.71
32900,0.18,1.00,-0.12,0.37,0.37,-2.14
32920,0.19,0.99,-0.13,1.53,0.31,-1.77
32940,0.17,1.00,-0.12,0.55,0.49,-2.75
32960,0.17,1.00,-0.12,-0.43,0.37,-2.81
32980,0.18,0.99,-0.12,-1.28,-0.12,-2.93
33000,0.17,1.00,-0.12,-1.71,0.31,-3.30
33020,0.18,0.99,-0.13,-1.10,0.06,-3.11
33040,0.17,1.00,-0.12,-0.85,0.00,-3.23
33060,0.17,1.00,-0.12,-1.28,-0.06,-2.69
33080,0.17,1.00,-0.12,-1.34,0.00,-2.20
33100,0.17,1.00,-0.12,-1.22,0.43,-1.34
33120,0.17,1.00,-0.12,-0.98,0.43,-0.98
33140,0.17,1.00,-0.12,-0.98,0.49,-1.22
33160,0.17,1.00,-0.12,-1.22,0.55,-1.22
33180,0.17,1.00,-0.12,-1.10,0.61,-1.04
33200,0.16,1.00,-0.12,-1.28,0.67,-0.49
33220,0.17,1.00,-0.12,-0.79,0.55,0.12
33240,0.17,1.00,-0.12,-0.98,0.85,0.37
33260,0.17,1.00,-0.12,-1.04,0.98,0.61
33280,0.17,1.00,-0.12,-0.73,1.22,0.98
33300,0.17,1.00,-0.12,-0.43,0.98,1.16
33320,0.17,1.00,-0.12,-0.37,1.22,1.10
33340,0.17,1.00,-0.12,-0.18,1.10,0.98
33360,0.17,1.00,-0.12,-0.61,1.22,0.92
33380,0.17,0.99,-0.13,-0.43,1.22,0.85
33400,0.17,1.00,-0.12,-0.79,1.53,1.04
33420,0.17,1.00,-0.12,-1.40,1.40,1.28
33440,0.18,0.99,-0.13,-1.53,1.22,0.92
33460,0.18,0.99,-0.13,-2.01,0.92,0.73
33480,0.18,0.99,-0.13,-3.05,0.61,0.06
33500,0.18,0.99,-0.12,-3.66,0.37,-0.18
33520,0.17,1.00,-0.11,-4.09,0.12,-0.12
33540,0.17,1.00,-0.12,-4.39,-1.22,0.98
33560,0.17,1.00,-0.12,-4.52,-2.14,1.83
33580,0.18,0.99,-0.12,-5.74,-2.81,1.95
33600,0.17,1.00,-0.11,-6.29,-3.05,2.08
33620,0.18,1.00,-0.11,-6.96,-3.30,2.38
33640,0.19,1.00,-0.11,-6.59,-3.42,2.69
33660,0.17,1.00,-0.10,-6.53,-3.78,4.09
33680,0.18,1.00,-0.09,-7.02,-4.09,6.04
33700,0.18,1.01,-0.09,-7.26,-3.97,7.93
33720,0.19,1.00,-0.09,-7.57,-3.30,9.77
33740,0.20,1.01,-0.08,-8.30,-4.09,12.63
33760,0.19,1.01,-0.09,-6.53,-2.38,14.04
33780,0.22,1.00,-0.09,-5.80,-2.26,15.08
33800,0.22,1.01,-0.11,-3.60,-2.20,15.38
33820,0.23,1.01,-0.09,-3.66,-2.87,16.17
33840,0.24,1.00,-0.09,-2.69,-3.66,16.91
33860,0.24,1.00,-0.12,-2.99,-2.26,15.56
33880,0.23,1.04,-0.11,-4.52,-3.05,15.99
33900,0.23,1.05,-0.11,-5.68,-3.60,18.74
33920,0.24,1.08,-0.12,-7.69,-3.23,23.93
33940,0.26,1.05,-0.10,-8.48,-4.76,28.63
33960,0.27,1.03,-0.09,-9.95,-4.33,31.56
33980,0.30,0.99,-0.08,-12.15,-4.64,33.02
34000,0.31,0.98,-0.06,-13.61,-5.43,33.08
34020,0.33,0.97,-0.06,-14.28,-5.92,33.26
34040,0.32,1.00,-0.04,-14.53,-6.47,33.39
34060,0.35,0.96,-0.03,-14.71,-7.26,34.85
34080,0.36,0.96,-0.04,-15.32,-6.41,35.22
34100,0.39,0.93,-0.05,-17.21,-4.94,35.28
34120,0.40,0.93,-0.02,-18.49,-4.82,34.24
34140,0.41,0.90,-0.00,-19.47,-4.88,33.51
34160,0.44,0.87,0.00,-18.86,-5.80,30.27
34180,0.46,0.85,0.03,-17.21,-4.21,26.73
34200,0.47,0.84,0.04,-15.75,-3.60,23.13
34220,0.48,0.84,0.06,-13.43,-2.99,17.70
34240,0.49,0.84,0.06,-9.52,-1.65,13.92
34260,0.49,0.84,0.06,-7.57,-0.92,9.83
34280,0.50,0.83,0.05,-5.55,-0.55,6.04
34300,0.52,0.77,0.05,-2.81,1.04,0.12
34320,0.54,0.72,0.09,-0.31,2.32,-7.87
34340,0.50,0.78,0.05,1.77,5.13,-17.40
34360,0.46,0.91,0.07,7.26,2.32,-24.41
34380,0.45,0.91,0.09,11.11,1.59,-25.21
34400,0.47,0.86,0.09,14.83,2.50,-27.16
34420,0.45,0.79,-0.03,17.52,7.57,-34.61
34440,0.38,0.97,-0.08,16.05,7.32,-39.61
34460,0.37,1.01,-0.03,15.32,1.53,-36.25
34480,0.40,0.94,-0.01,13.55,0.18,-29.48
34500,0.41,0.87,0.00,12.21,3.91,-31.80
34520,0.40,0.83,-0.04,9.89,9.58,-35.40
34540,0.30,1.01,-0.09,6.04,6.35,-37.96
34560,0.29,1.08,0.01,6.47,2.56,-32.41
34580,0.34,0.96,-0.00,10.68,3.48,-28.20
34600,0.36,0.84,-0.02,12.70,9.83,-34.73
34620,0.24,1.04,-0.02,12.82,11.05,-37.17
34640,0.24,1.08,-0.07,13.06,8.97,-30.70
34660,0.31,1.00,-0.08,13.61,8.30,-25.70
34680,0.37,0.89,-0.13,12.08,15.81,-30.94
34700,0.34,0.96,-0.13,8.36,25.76,-43.88
34720,0.03,1.29,-0.24,9.28,32.90,-49.80
34740,0.16,1.10,-0.13,23.13,7.26,-20.14
34760,0.19,1.02,-0.16,9.95,7.69,-11.41
34780,0.21,1.00,-0.13,1.04,5.31,-10.38
34800,0.20,1.01,-0.08,-1.77,6.90,-10.86
34820,0.20,1.00,-0.09,1.16,7.93,-11.72
34840,0.19,0.99,-0.11,2.93,7.26,-11.72
34860,0.18,0.99,-0.12,2.20,4.21,-11.23
34880,0.18,1.00,-0.11,1.22,2.38,-10.56
34900,0.17,1.01,-0.10,1.10,0.67,-8.61
34920,0.18,1.01,-0.12,1.10,2.62,-4.88
34940,0.17,1.00,-0.11,1.83,1.28,-3.11
34960,0.18,1.00,-0.11,2.14,1.46,-1.71
34980,0.17,1.00,-0.12,0.92,1.34,-1.10
35000,0.18,0.99,-0.12,-0.24,0.85,-1.28
35020,0.18,1.00,-0.12,-0.18,0.92,-1.65
35040,0.18,1.00,-0.10,1.46,1.04,-0.61
35060,0.18,0.99,-0.13,2.69,1.77,-1.59
35080,0.17,0.99,-0.13,0.79,1.22,-2.44
35100,0.17,1.00,-0.12,-0.85,0.55,-2.50
35120,0.18,1.00,-0.12,-1.28,0.24,-2.01
35140,0.18,1.00,-0.12,-0.85,0.37,-2.08
35160,0.17,1.00,-0.12,-0.55,0.18,-2.38
35180,0.17,1.00,-0.12,-0.37,0.18,-2.56
35200,0.17,1.00,-0.12,-0.55,0.49,-2.08
35220,0.17,1.00,-0.12,-0.61,0.61,-1.71
35240,0.17,1.00,-0.12,-0.43,0.67,-1.16
35260,0.17,1.00,-0.12,-0.43,0.61,-0.73
35280,0.17,1.00,-0.12,-0.61,0.79,-0.55
35300,0.17,1.00,-0.13,-1.04,0.92,-0.43
35320,0.17,1.00,-0.12,-0.92,0.85,-0.06
35340,0.17,1.00,-0.12,-0.79,0.61,-0.18
35360,0.17,1.00,-0.12,-0.73,0.79,0.00
35380,0.17,1.00,-0.12,-0.61,0.98,0.18
35400,0.17,0.99,-0.13,-0.73,1.10,0.18
35420,0.17,1.00,-0.12,-0.43,1.04,0.18
35440,0.17,1.00,-0.12,-0.31,1.10,0.24
35460,0.17,1.00,-0.13,-0.06,1.28,0.18
35480,0.17,1.00,-0.13,0.00,1.22,0.37
35500,0.17,1.00,-0.12,-0.49,1.22,0.37
35520,0.18,0.99,-0.13,-0.43,1.16,0.24
35540,0.17,1.00,-0.12,-0.55,1.65,-0.06
35560,0.18,0.99,-0.13,0.00,1.46,0.18
35580,0.17,1.00,-0.13,0.00,1.77,0.12
35600,0.18,0.99,-0.13,-0.18,1.77,0.37
35620,0.18,0.99,-0.13,-1.04,1.77,0.43
35640,0.17,0.99,-0.13,-1.22,2.01,0.31
35660,0.18,0.99,-0.13,-1.83,1.71,0.37
35680,0.17,1.00,-0.13,-2.44,1.28,0.18
35700,0.18,0.99,-0.13,-2.99,1.10,0.55
35720,0.17,1.00,-0.12,-3.42,0.55,0.43
35740,0.17,1.00,-0.13,-3.36,-0.85,1.77
35760,0.17,1.00,-0.12,-4.03,-1.28,1.53
35780,0.17,1.00,-0.12,-4.03,-1.71,1.71
35800,0.18,1.00,-0.12,-3.30,-2.14,2.56
35820,0.16,1.00,-0.11,-3.11,-2.81,4.03
35840,0.17,1.01,-0.11,-4.15,-4.09,6.23
35860,0.18,1.00,-0.11,-4.33,-4.88,8.42
35880,0.17,1.02,-0.09,-4.46,-5.19,11.11
35900,0.18,1.03,-0.10,-3.60,-5.13,15.50
35920,0.21,1.02,-0.12,-3.48,-4.27,18.86
35940,0.19,1.04,-0.14,-4.94,-4.39,20.57
35960,0.23,1.00,-0.13,-5.80,-6.77,23.32
35980,0.23,1.02,-0.14,-6.35,-5.13,23.13
36000,0.23,1.05,-0.13,-5.07,-6.90,25.02
36020,0.23,1.10,-0.12,-5.92,-6.47,28.26
36040,0.25,1.06,-0.13,-7.08,-5.62,32.29
36060,0.28,1.01,-0.14,-10.44,-5.92,34.73
36080,0.28,1.00,-0.15,-14.04,-5.92,34.48
36100,0.30,0.97,-0.13,-18.13,-7.57,34.67
36120,0.33,0.94,-0.09,-22.95,-8.91,33.33
36140,0.33,0.96,-0.07,-24.60,-8.00,31.74
36160,0.37,0.90,-0.05,-26.25,-8.48,31.62
36180,0.34,0.95,-0.01,-26.67,-5.43,30.03
36200,0.39,0.90,-0.03,-26.73,-3.42,30.70
36220,0.39,0.93,-0.03,-28.08,-2.20,28.50
36240,0.40,0.92,-0.04,-30.40,-1.40,27.28
36260,0.43,0.89,0.03,-30.70,-4.39,26.73
36280,0.44,0.85,0.02,-30.33,-2.81,25.70
36300,0.45,0.86,0.04,-29.79,-2.81,21.79
36320,0.44,0.92,0.09,-25.88,-1.77,20.51
36340,0.46,0.90,0.11,-21.67,-2.14,20.94
36360,0.47,0.88,0.11,-17.09,-1.10,18.74
36380,0.50,0.85,0.11,-11.11,0.00,13.55
36400,0.51,0.82,0.11,-7.26,0.37,9.40
36420,0.53,0.78,0.11,-3.30,0.73,3.66
36440,0.52,0.75,0.12,2.81,2.75,-9.64
36460,0.52,0.75,0.10,6.16,2.20,-18.37
36480,0.51,0.76,0.07,7.20,2.26,-26.86
36500,0.47,0.84,0.06,10.19,1.46,-39.67
36520,0.46,0.87,0.14,15.14,0.37,-44.49
36540,0.38,0.89,0.18,23.62,1.40,-47.97
36560,0.33,0.99,0.10,36.32,0.06,-45.78
36580,0.40,0.90,0.01,37.96,0.37,-40.77
36600,0.41,0.86,-0.14,34.06,12.57,-44.43
36620,0.39,0.84,-0.19,20.26,12.70,-52.43
36640,0.29,0.97,-0.08,12.02,11.84,-59.33
36660,0.16,1.21,0.02,10.86,4.03,-58.35
36680,0.20,1.23,0.06,19.23,5.62,-38.27
36700,0.30,0.98,-0.00,28.56,12.88,-31.62
36720,0.42,0.84,-0.14,30.40,26.92,-39.06
36740,0.24,1.03,-0.19,26.67,41.20,-58.59
36760,0.07,1.32,0.05,42.05,14.47,-37.11
36780,0.14,1.11,-0.12,30.76,0.67,-12.45
36800,0.22,0.98,-0.18,6.96,-0.79,-2.56
36820,0.21,1.01,-0.09,-4.94,0.85,-5.62
36840,0.21,0.99,-0.10,-2.93,3.17,-5.62
36860,0.22,0.98,-0.11,-1.10,3.42,-7.93
36880,0.19,0.98,-0.14,0.79,4.76,-11.90
36900,0.18,0.99,-0.13,1.16,4.03,-14.59
36920,0.14,1.01,-0.11,-0.55,0.73,-13.85
36940,0.16,1.01,-0.10,0.43,-1.46,-6.90
36960,0.16,1.01,-0.11,1.89,-0.49,-4.39
36980,0.16,1.00,-0.11,2.20,0.12,-1.83
37000,0.17,1.00,-0.12,2.62,-0.06,-0.18
37020,0.18,0.99,-0.13,2.44,0.18,-0.12
37040,0.18,0.99,-0.14,1.04,0.12,-0.85
37060,0.18,0.99,-0.13,-1.16,0.00,-1.71
37080,0.17,1.00,-0.12,-2.32,-0.31,-2.38
37100,0.18,0.99,-0.13,-1.34,-0.49,-2.56
37120,0.17,1.00,-0.13,-1.46,-0.79,-3.30
37140,0.17,1.00,-0.12,-2.20,-0.37,-3.60
37160,0.17,1.00,-0.12,-2.56,-0.43,-3.36
37180,0.17,1.00,-0.12,-2.69,-0.12,-3.30
37200,0.17,1.00,-0.12,-3.05,-0.49,-2.69
37220,0.17,1.00,-0.12,-3.05,-0.37,-2.56
37240,0.17,1.00,-0.11,-2.75,-0.12,-2.38
37260,0.17,1.00,-0.12,-1.71,0.31,-2.08
37280,0.17,1.00,-0.12,-2.08,0.37,-2.08
37300,0.16,1.00,-0.12,-2.14,0.49,-2.38
37320,0.16,1.00,-0.12,-2.81,-0.18,-2.14
37340,0.16,1.00,-0.11,-2.32,-0.31,-1.77
37360,0.16,1.00,-0.11,-0.92,-0.18,-1.04
37380,0.16,1.00,-0.12,-0.73,0.31,-0.49
37400,0.16,1.00,-0.12,-0.73,0.43,-0.31
37420,0.16,1.00,-0.12,-1.22,0.55,-0.31
37440,0.16,1.00,-0.12,-1.65,1.04,-1.10
37460,0.16,1.00,-0.12,-1.71,-0.18,-0.18
37480,0.17,1.00,-0.12,-2.38,-0.49,-0.37
37500,0.17,1.00,-0.12,-1.95,0.12,-1.34
37520,0.17,1.00,-0.12,-0.43,0.61,-0.79
37540,0.16,1.00,-0.12,-0.79,0.73,-0.55
37560,0.16,1.00,-0.12,-1.16,0.55,-0.67
37580,0.16,1.00,-0.11,-1.04,0.55,-0.55
37600,0.16,1.00,-0.12,-0.06,0.98,-0.37
37620,0.16,1.00,-0.12,0.31,1.10,-0.12
37640,0.16,1.00,-0.12,0.12,1.16,-0.24
37660,0.16,1.00,-0.11,-0.31,1.34,-0.31
37680,0.17,1.00,-0.12,-0.49,1.28,-0.24
37700,0.16,1.00,-0.12,-0.73,1.53,-0.73
37720,0.16,1.00,-0.12,-1.40,0.85,-0.37
37740,0.16,1.00,-0.12,-1.46,0.98,-0.24
37760,0.16,1.00,-0.12,-1.77,0.43,0.00
37780,0.17,1.00,-0.12,-1.77,0.31,0.24
37800,0.17,1.00,-0.12,-1.46,0.31,0.00
37820,0.15,1.00,-0.10,-0.92,0.06,0.98
37840,0.15,1.01,-0.11,-1.16,-1.59,3.11
37860,0.17,1.00,-0.13,-2.14,-2.20,5.37
37880,0.15,1.01,-0.12,-5.80,-4.21,7.39
37900,0.15,1.02,-0.10,-7.45,-4.03,10.25
37920,0.18,1.00,-0.12,-9.83,-4.58,13.67
37940,0.18,1.02,-0.09,-13.67,-4.15,17.94
37960,0.14,1.06,-0.08,-11.84,-2.62,20.63
37980,0.10,1.17,-0.09,-12.02,-6.10,29.42
38000,0.17,1.16,-0.14,-10.31,-12.57,46.14
38020,0.24,1.12,-0.21,-7.69,-8.00,47.49
38040,0.21,1.13,-0.23,-14.47,-6.29,51.03
38060,0.21,1.16,-0.24,-22.52,-10.62,57.31
38080,0.27,1.06,-0.16,-37.11,-16.05,65.06
38100,0.27,1.04,-0.11,-43.58,-15.44,66.16
38120,0.28,1.06,0.00,-48.46,-15.93,69.46
38140,0.38,0.94,0.05,-46.45,-9.58,81.42
38160,0.33,1.01,0.04,-44.74,-1.34,83.07
38180,0.38,0.91,0.06,-44.13,-5.25,87.46
38200,0.54,0.73,0.07,-44.31,-13.92,82.28
38220,0.61,0.56,0.08,-42.24,-14.65,71.29
38240,0.65,0.50,0.11,-37.96,-12.27,54.44
38260,0.65,0.43,0.21,-25.15,-8.00,27.65
38280,0.68,0.44,0.25,-15.01,-4.58,9.03
38300,0.70,0.42,0.25,-3.97,-1.28,-9.28
38320,0.70,0.42,0.22,10.50,6.41,-42.97
38340,0.68,0.35,0.16,19.90,8.06,-66.53
38360,0.51,0.53,0.14,27.77,11.29,-93.20
38380,0.46,0.84,0.16,39.37,1.77,-109.62
38400,0.27,1.19,0.10,46.81,-0.18,-99.91
38420,0.38,0.92,-0.01,45.72,-0.73,-86.49
38440,0.53,0.60,0.13,46.02,7.02,-95.15
38460,0.14,0.97,0.09,55.97,37.60,-118.16
38480,-0.18,1.70,-0.07,57.19,33.14,-112.85
38500,-0.03,1.70,-0.17,57.31,32.41,-67.69
38520,0.15,1.00,-0.37,59.75,36.80,-19.17
38540,0.06,1.12,-0.10,35.03,20.08,-11.35
38560,0.21,1.03,-0.12,12.39,3.23,-1.71
38580,0.27,0.94,-0.15,0.12,3.85,-1.53
38600,0.26,0.96,-0.13,-2.38,6.23,-8.12
38620,0.23,0.98,-0.12,-0.73,7.93,-12.39
38640,0.20,0.99,-0.12,4.76,7.39,-15.26
38660,0.17,1.00,-0.12,5.68,7.14,-15.44
38680,0.16,1.00,-0.12,4.70,4.88,-12.82
38700,0.16,1.01,-0.09,0.98,3.11,-7.02
38720,0.19,1.01,-0.08,1.28,0.24,-2.38
38740,0.19,1.00,-0.11,3.30,1.40,0.31
38760,0.19,0.98,-0.14,3.78,1.28,1.22
38780,0.20,0.97,-0.16,1.10,1.22,0.12
38800,0.20,0.98,-0.14,-2.38,0.92,-1.10
38820,0.19,0.99,-0.13,-3.97,1.10,-1.77
38840,0.18,1.00,-0.12,-2.99,1.16,-1.46
38860,0.18,1.01,-0.11,-1.83,0.61,-0.43
38880,0.18,0.99,-0.13,1.04,0.43,1.34
38900,0.17,0.99,-0.13,-1.22,-0.98,2.14
38920,0.13,1.02,-0.12,-3.42,-4.09,5.98
38940,0.15,1.02,-0.14,-8.24,-9.95,12.27
38960,0.13,1.09,-0.11,-22.58,-19.53,21.61
38980,0.11,1.20,-0.13,-25.33,-25.82,31.37
39000,0.12,1.31,-0.25,-21.30,-31.31,45.17
39020,0.23,1.27,-0.21,-12.08,-30.21,68.85
39040,0.21,1.20,-0.24,-23.80,-20.45,75.93
39060,0.27,1.03,-0.22,-34.30,-22.16,79.53
39080,0.31,1.00,-0.13,-46.75,-19.78,78.25
39100,0.31,0.99,-0.01,-51.51,-21.30,80.57
39120,0.39,0.88,0.02,-54.81,-18.43,85.14
39140,0.40,0.85,0.05,-52.00,-13.12,79.28
39160,0.52,0.66,0.10,-47.97,-13.55,73.06
39180,0.54,0.64,0.16,-40.10,-14.65,60.42
39200,0.60,0.54,0.22,-16.30,-14.47,43.58
39220,0.62,0.47,0.22,-17.27,-7.63,26.49
39240,0.65,0.53,0.19,-7.63,-1.46,10.50
39260,0.68,0.47,0.10,-0.61,1.04,-5.25
39280,0.62,0.59,0.14,8.61,3.30,-30.15
39300,0.60,0.71,0.17,12.02,6.96,-44.92
39320,0.59,0.59,0.24,22.58,5.80,-56.46
39340,0.39,0.96,0.12,36.01,14.22,-74.58
39360,0.44,0.89,0.07,38.33,6.53,-70.31
39380,0.47,0.72,-0.07,33.87,10.62,-73.97
39400,0.36,0.99,-0.12,21.79,11.60,-89.66
39420,0.19,1.12,0.04,20.14,11.05,-82.40
39440,0.27,1.06,0.05,18.62,9.09,-68.85
39460,0.24,1.05,0.03,21.36,12.76,-66.71
39480,0.30,0.95,0.17,27.53,18.62,-67.99
39500,0.46,1.13,0.02,39.18,37.05,-75.01
39520,-0.18,1.24,-0.48,83.74,64.94,-73.06
39540,-0.31,1.29,-0.05,48.40,16.17,-31.74
39560,0.17,0.99,-0.23,8.73,-11.41,3.66
39580,0.21,0.98,-0.12,-11.23,-0.92,4.76
39600,0.24,0.98,-0.07,-3.91,-2.01,-1.46
39620,0.22,0.97,-0.12,-0.12,4.15,-3.11
39640,0.22,0.97,-0.13,-0.31,1.53,-8.48
39660,0.22,0.99,-0.09,-0.49,0.37,-8.48
39680,0.19,1.00,-0.09,0.85,1.22,-10.07
39700,0.17,1.01,-0.09,1.77,3.17,-9.16
39720,0.15,1.02,-0.08,2.32,1.71,-5.13
39740,0.17,1.00,-0.10,2.08,-0.55,-0.67
39760,0.18,1.00,-0.11,2.08,-0.79,1.10
39780,0.19,0.99,-0.12,1.40,-0.31,0.67
39800,0.19,0.99,-0.12,-0.06,0.18,-0.24
39820,0.20,0.99,-0.12,-0.43,0.79,-0.85
39840,0.19,0.99,-0.11,-0.12,1.89,-1.59
39860,0.19,1.00,-0.11,0.31,2.32,-2.01
39880,0.18,1.00,-0.11,0.92,2.32,-1.95
39900,0.18,1.00,-0.11,1.28,1.65,-1.46
39920,0.18,1.00,-0.11,1.46,1.46,-0.67
39940,0.18,0.99,-0.12,2.26,1.28,0.37
39960,0.18,0.99,-0.15,0.67,0.12,1.40
39980,0.19,0.99,-0.13,-1.53,0.12,0.73
40000,0.19,0.99,-0.12,-2.99,-0.06,-0.18
40020,0.16,1.00,-0.11,-4.52,-1.16,0.92
40040,0.17,1.01,-0.10,-6.71,-4.88,3.72
40060,0.18,1.00,-0.12,-9.34,-5.74,6.41
40080,0.16,1.02,-0.11,-12.63,-7.26,10.74
40100,0.17,1.03,-0.11,-18.74,-11.66,16.72
40120,0.15,1.09,-0.11,-21.00,-11.29,20.08
40140,0.14,1.11,-0.14,-18.13,-14.10,26.18
40160,0.21,1.19,-0.13,-12.76,-21.42,37.35
40180,0.22,1.17,-0.18,-8.97,-17.94,45.17
40200,0.23,1.14,-0.16,-16.05,-13.73,50.05
40220,0.24,1.09,-0.15,-27.89,-13.49,54.93
40240,0.26,1.05,-0.09,-33.94,-13.92,57.98
40260,0.29,1.01,-0.04,-37.60,-13.18,61.10
40280,0.33,0.92,0.03,-37.72,-11.29,64.88
40300,0.40,0.84,0.09,-35.10,-10.13,67.02
40320,0.38,0.90,0.03,-32.84,-5.80,62.68
40340,0.49,0.72,0.06,-29.36,-6.41,57.19
40360,0.51,0.67,0.04,-26.73,-4.82,47.79
40380,0.54,0.66,0.08,-23.62,-7.93,36.07
40400,0.59,0.58,0.08,-18.37,-6.84,16.78
40420,0.63,0.50,0.02,-16.72,-6.53,-0.12
40440,0.62,0.51,0.05,-15.14,-6.10,-20.57
40460,0.52,0.69,0.07,-8.54,-10.99,-48.46
40480,0.42,0.97,0.27,6.96,-17.15,-53.77
40500,0.42,0.98,0.28,13.67,-17.52,-52.49
40520,0.49,0.77,0.24,19.29,-12.82,-53.34
40540,0.47,0.72,0.11,22.09,1.10,-72.81
40560,0.25,1.04,0.13,28.44,2.08,-84.17
40580,0.12,1.34,0.23,36.56,-0.06,-70.56
40600,0.25,1.03,0.10,57.62,4.15,-38.02
40620,0.33,0.82,-0.03,56.46,13.24,-36.01
40640,0.36,0.80,-0.16,46.63,21.61,-47.49
40660,0.44,1.04,-0.22,32.71,28.08,-68.73
40680,-0.04,1.37,-0.28,31.92,41.08,-70.68
40700,0.03,1.28,-0.07,51.76,42.18,-39.49
40720,0.14,1.06,-0.16,18.19,2.50,-14.95
40740,0.19,1.02,-0.06,-1.34,-0.49,-7.39
40760,0.19,1.01,-0.05,-4.03,3.78,-6.71
40780,0.20,1.00,-0.09,2.32,3.85,-8.30
40800,0.19,0.99,-0.11,4.09,4.33,-9.09
40820,0.17,1.00,-0.11,4.03,3.60,-8.85
40840,0.17,0.99,-0.12,1.04,0.67,-6.35
40860,0.17,1.00,-0.09,-0.24,-0.24,-5.86
40880,0.17,1.00,-0.09,0.31,-0.55,-4.94
40900,0.16,1.01,-0.08,0.73,0.00,-2.08
40920,0.17,1.00,-0.10,1.04,0.55,-0.98
40940,0.18,1.00,-0.11,0.98,0.55,-0.49
40960,0.18,0.99,-0.12,0.12,0.67,-0.49
40980,0.17,1.00,-0.10,-1.28,0.92,-0.61
41000,0.18,1.00,-0.11,-1.22,0.85,-0.73
41020,0.17,1.00,-0.10,-0.85,1.16,-0.98
41040,0.17,1.00,-0.11,-0.37,0.67,-0.79
41060,0.17,1.00,-0.10,-0.12,0.85,-0.79
41080,0.18,1.00,-0.11,-0.31,0.43,-0.43
41100,0.18,1.00,-0.11,-0.24,0.85,-0.31
41120,0.17,1.00,-0.11,-0.18,0.73,0.06
41140,0.18,1.00,-0.11,-0.37,0.12,0.79
41160,0.18,1.00,-0.11,-0.43,0.61,0.49
41180,0.18,1.00,-0.11,-0.55,0.98,0.49
41200,0.17,1.00,-0.11,-1.10,0.92,0.98
41220,0.16,1.00,-0.10,-1.95,-0.43,2.50
41240,0.17,1.00,-0.11,-2.62,-0.61,3.85
41260,0.15,1.01,-0.09,-4.27,-1.53,6.35
41280,0.14,1.02,-0.08,-8.30,-3.17,12.33
41300,0.17,1.03,-0.10,-10.31,-4.88,16.97
41320,0.15,1.07,-0.06,-13.43,-7.26,21.73
41340,0.14,1.13,-0.11,-14.71,-11.05,33.69
41360,0.21,1.18,-0.13,-11.60,-21.36,43.09
41380,0.25,1.22,-0.21,-8.00,-16.24,50.96
41400,0.23,1.18,-0.27,-14.71,-11.23,57.98
41420,0.23,1.13,-0.25,-33.94,-15.50,67.44
41440,0.24,1.08,-0.14,-44.07,-17.15,72.57
41460,0.28,0.99,-0.09,-49.80,-17.27,76.72
41480,0.40,0.78,0.04,-52.12,-13.24,79.16
41500,0.42,0.76,0.02,-46.33,-6.71,73.12
41520,0.50,0.65,0.10,-41.20,-11.11,64.70
41540,0.54,0.58,0.13,-29.72,-10.50,43.76
41560,0.57,0.57,0.16,-20.57,-12.21,28.02
41580,0.59,0.59,0.19,-11.90,-12.08,11.66
41600,0.62,0.54,0.25,2.75,-8.61,-14.10
41620,0.59,0.56,0.28,14.16,-5.07,-35.71
41640,0.53,0.66,0.23,24.11,-1.89,-54.75
41660,0.40,0.92,0.19,33.94,0.79,-64.70
41680,0.45,0.87,0.10,34.67,4.70,-66.28
41700,0.44,0.76,-0.00,40.95,11.96,-72.33
41720,0.35,0.64,0.03,41.38,17.52,-85.69
41740,0.15,1.09,-0.07,40.77,18.55,-90.45
41760,0.14,1.28,-0.01,41.20,11.78,-77.64
41780,0.41,1.14,-0.15,41.81,18.31,-60.79
41800,0.01,1.55,-0.64,40.95,52.67,-56.03
41820,-0.03,1.39,-0.03,39.25,24.90,-41.44
41840,0.06,1.14,-0.06,10.62,-3.42,-11.05
41860,0.23,0.98,-0.10,-7.57,-5.86,4.09
41880,0.25,0.98,-0.07,-7.02,-4.33,0.37
41900,0.27,0.93,-0.11,-4.03,0.18,-2.38
41920,0.25,0.97,-0.11,-3.23,3.17,-10.44
41940,0.23,0.98,-0.11,-2.75,4.21,-14.22
41960,0.21,0.99,-0.10,-1.89,4.09,-17.52
41980,0.15,1.03,-0.06,-0.24,3.11,-17.21
42000,0.14,1.03,-0.06,-0.31,0.73,-11.29
42020,0.18,1.00,-0.09,-0.06,-1.34,-6.23
42040,0.18,1.01,-0.09,-0.31,-0.24,-3.66
42060,0.18,1.00,-0.09,-0.31,0.24,-1.65
42080,0.19,1.00,-0.09,-0.12,1.16,-0.92
42100,0.19,1.00,-0.09,2.14,3.54,-1.10
42120,0.16,1.01,-0.07,3.85,4.70,-0.85
42140,0.17,1.00,-0.09,5.19,1.95,1.89
42160,0.19,0.99,-0.11,5.13,0.85,2.87
42180,0.19,0.99,-0.11,4.21,1.40,2.38
42200,0.19,1.00,-0.11,2.99,2.20,1.95
42220,0.17,1.00,-0.10,2.26,2.50,2.01
42240,0.18,1.00,-0.11,1.28,-0.12,4.70
42260,0.20,0.99,-0.11,0.00,-0.43,5.37
42280,0.21,0.98,-0.12,-0.37,-0.06,4.15
42300,0.20,0.99,-0.11,-0.79,1.16,2.32
42320,0.18,1.00,-0.10,-0.67,0.79,2.20
42340,0.16,1.01,-0.10,-1.53,-1.04,4.27
42360,0.20,0.99,-0.12,-3.91,-2.50,8.97
42380,0.17,1.03,-0.09,-6.10,-4.09,10.62
42400,0.16,1.06,-0.07,-7.32,-6.04,15.63
42420,0.19,1.07,-0.12,-6.96,-8.18,22.64
42440,0.19,1.12,-0.12,-8.00,-11.78,26.31
42460,0.22,1.10,-0.12,-7.51,-13.92,30.88
42480,0.26,1.08,-0.17,-5.62,-11.96,36.62
42500,0.25,1.13,-0.20,-10.99,-11.29,39.49
42520,0.24,1.13,-0.17,-18.07,-13.18,45.10
42540,0.25,1.10,-0.14,-27.22,-12.88,54.38
42560,0.28,1.07,-0.08,-30.76,-13.37,58.78
42580,0.31,1.00,-0.03,-32.90,-11.72,62.26
42600,0.31,0.97,0.00,-33.20,-9.58,68.42
42620,0.41,0.83,0.04,-30.88,-7.63,71.29
42640,0.45,0.79,0.11,-26.55,-6.47,63.54
42660,0.52,0.70,0.10,-21.67,-3.85,57.31
42680,0.58,0.56,0.09,-14.65,-0.37,40.89
42700,0.62,0.53,0.13,-6.77,-1.59,24.41
42720,0.63,0.53,0.11,-0.43,0.98,7.39
42740,0.67,0.37,0.04,9.52,9.40,-25.02
42760,0.61,0.41,0.03,19.41,13.85,-53.28
42780,0.50,0.58,-0.04,23.93,13.73,-74.83
42800,0.26,1.16,0.00,25.70,3.48,-82.15
42820,0.31,1.11,-0.01,27.22,-1.10,-66.47
42840,0.43,0.90,0.02,28.08,0.73,-59.94
42860,0.45,0.37,0.01,24.84,24.35,-81.85
42880,0.07,1.11,-0.05,19.04,35.89,-100.10
42900,0.16,1.48,-0.05,19.84,22.34,-88.68
42920,0.14,1.52,-0.47,19.41,44.92,-56.76
42940,0.15,1.23,-0.18,9.64,10.50,-31.86
42960,0.16,1.05,-0.20,-2.08,17.88,-24.90
42980,0.13,1.09,-0.00,-9.89,7.93,-18.01
43000,0.20,1.03,-0.01,0.61,4.76,-9.52
43020,0.22,0.97,-0.11,5.86,8.97,-8.54
43040,0.23,0.96,-0.14,6.71,8.73,-10.74
43060,0.18,0.98,-0.12,3.85,9.40,-13.61
43080,0.11,1.04,-0.07,3.05,5.49,-11.41
43100,0.16,1.01,-0.09,1.59,-0.92,-3.17
43120,0.19,1.00,-0.09,1.22,0.49,-0.49
43140,0.19,1.00,-0.11,2.26,1.10,-0.43
43160,0.18,1.00,-0.11,2.38,1.22,-0.61
43180,0.19,0.99,-0.12,1.59,0.67,-0.24
43200,0.19,0.99,-0.12,0.85,0.55,-0.49
43220,0.19,0.99,-0.12,-0.24,0.92,-0.92
43240,0.19,0.99,-0.12,-0.98,1.40,-1.65
43260,0.19,1.00,-0.11,-0.98,1.77,-2.14
43280,0.18,1.00,-0.11,-0.49,1.77,-2.32
43300,0.18,1.00,-0.12,0.06,1.65,-2.14
43320,0.18,1.00,-0.11,0.31,1.59,-1.77
43340,0.18,1.00,-0.12,-0.61,1.16,-1.22
43360,0.18,0.99,-0.12,-1.10,0.92,-0.92
43380,0.19,0.99,-0.12,-1.34,0.92,-1.34
43400,0.19,0.99,-0.12,-1.46,1.04,-1.46
43420,0.18,1.00,-0.11,-1.53,1.34,-1.59
43440,0.18,1.00,-0.11,-1.16,1.53,-1.40
43460,0.18,1.00,-0.12,-1.28,1.22,-1.22
43480,0.18,1.00,-0.11,-1.46,1.46,-0.61
43500,0.17,1.00,-0.11,-1.28,0.55,0.49
43520,0.17,1.00,-0.11,-1.40,-0.37,1.65
43540,0.18,1.00,-0.12,-2.14,-1.40,2.38
43560,0.19,1.00,-0.11,-3.91,-1.71,3.23
43580,0.18,0.99,-0.12,-4.46,-1.59,3.48
43600,0.14,1.02,-0.09,-6.90,-3.30,6.23
43620,0.09,1.07,-0.08,-12.39,-8.67,17.27
43640,0.19,1.05,-0.11,-17.88,-13.73,28.75
43660,0.17,1.15,-0.11,-18.01,-15.63,35.28
43680,0.20,1.27,-0.21,-12.82,-23.50,47.55
43700,0.26,1.26,-0.21,-13.12,-20.57,59.57
43720,0.20,1.23,-0.24,-23.07,-15.26,68.66
43740,0.23,1.11,-0.23,-39.67,-17.46,76.97
43760,0.28,1.02,-0.09,-47.30,-18.74,81.24
43780,0.32,0.92,0.01,-52.86,-14.83,83.19
43800,0.43,0.80,0.07,-52.37,-5.07,84.84
43820,0.48,0.73,0.13,-44.31,-8.24,78.98
43840,0.54,0.61,0.19,-35.58,-7.57,67.93
43860,0.55,0.61,0.16,-27.34,-3.23,37.60
43880,0.61,0.59,0.20,-15.20,-3.42,32.17
43900,0.62,0.61,0.22,-4.52,-1.89,16.97
43920,0.64,0.62,0.21,7.75,-0.61,2.62
43940,0.63,0.52,0.25,24.90,1.89,-21.42
43960,0.60,0.52,0.13,32.10,6.71,-39.18
43980,0.54,0.53,-0.05,36.99,13.31,-55.48
44000,0.51,0.58,-0.27,27.22,17.52,-81.42
44020,0.26,1.21,-0.19,22.95,12.57,-92.04
44040,0.40,1.07,0.18,22.22,-5.74,-76.66
44060,0.18,1.06,0.26,36.56,4.70,-77.82
44080,0.25,1.02,0.12,44.68,11.23,-64.27
44100,0.28,0.91,-0.21,40.77,29.30,-58.17
44120,0.31,0.96,-0.37,17.21,27.47,-70.86
44140,0.37,1.24,-0.39,0.06,41.56,-84.23
44160,-0.26,1.69,-0.03,4.03,38.76,-77.39
44180,-0.04,1.33,0.03,9.16,-12.57,-4.09
44200,0.24,1.00,-0.08,-8.00,-7.93,1.71
44220,0.24,0.96,-0.10,-8.67,-2.50,-0.79
44240,0.26,0.95,-0.09,-8.42,1.34,-9.34
44260,0.24,0.96,-0.09,-6.90,2.50,-13.24
44280,0.24,0.97,-0.11,-4.46,2.14,-17.46
44300,0.21,0.99,-0.09,-2.20,1.16,-20.57
44320,0.18,1.00,-0.08,-0.85,-0.31,-19.78
44340,0.16,1.03,-0.05,-1.04,-1.16,-18.01
44360,0.17,1.02,-0.04,0.37,-1.89,-14.59
44380,0.17,1.01,-0.06,1.22,-0.43,-9.52
44400,0.15,1.01,-0.07,1.16,1.77,-6.84
44420,0.18,1.00,-0.07,1.46,1.65,-3.78
44440,0.17,1.00,-0.07,2.75,4.46,-1.89
44460,0.15,1.01,-0.08,4.27,5.49,-1.22
44480,0.15,1.01,-0.08,3.60,1.95,1.83
44500,0.17,1.00,-0.09,3.36,0.06,3.36
44520,0.18,1.00,-0.09,3.48,0.18,3.72
44540,0.19,1.00,-0.09,2.87,1.89,2.56
44560,0.18,1.00,-0.09,2.81,1.83,1.71
44580,0.19,0.99,-0.10,2.32,1.95,1.04
44600,0.19,0.99,-0.10,1.71,2.26,-0.43
44620,0.19,0.99,-0.11,1.34,4.46,-2.62
44640,0.18,1.00,-0.10,1.34,5.92,-3.78
44660,0.16,1.00,-0.09,1.46,5.25,-3.23
44680,0.17,1.00,-0.09,1.71,3.72,-1.71
44700,0.17,1.00,-0.10,2.81,3.48,-0.92
44720,0.18,1.00,-0.11,2.50,3.36,-0.92
44740,0.17,1.00,-0.11,1.95,2.62,-0.73
44760,0.17,1.00,-0.11,1.16,1.89,-0.73
44780,0.18,0.99,-0.11,0.43,1.40,-0.85
44800,0.17,1.00,-0.11,-0.31,1.28,-0.98
44820,0.17,1.00,-0.12,-2.20,-0.24,0.06
44840,0.15,1.00,-0.10,-3.11,-1.28,0.98
44860,0.18,1.00,-0.11,-3.85,-2.69,2.20
44880,0.16,1.01,-0.10,-6.71,-4.27,4.46
44900,0.12,1.03,-0.08,-8.06,-5.25,8.54
44920,0.14,1.03,-0.09,-12.70,-9.58,16.42
44940,0.13,1.09,-0.07,-19.78,-10.56,24.23
44960,0.17,1.12,-0.09,-18.37,-15.56,32.71
44980,0.15,1.20,-0.16,-13.00,-17.21,39.73
45000,0.21,1.26,-0.15,-7.02,-16.11,52.55
45020,0.23,1.16,-0.18,-14.04,-12.51,60.61
45040,0.21,1.14,-0.19,-24.48,-9.34,64.51
45060,0.24,1.09,-0.11,-32.96,-10.31,71.29
45080,0.29,0.97,-0.04,-38.51,-11.35,75.93
45100,0.32,0.95,0.04,-41.02,-8.48,78.37
45120,0.37,0.90,0.05,-38.64,-5.55,79.96
45140,0.46,0.81,0.08,-33.08,-6.23,76.60
45160,0.49,0.71,0.09,-31.49,-2.69,71.11
45180,0.56,0.60,0.06,-26.86,-1.59,60.61
45200,0.64,0.51,0.09,-19.35,-2.75,38.45
45220,0.68,0.49,0.16,-10.38,-3.85,18.37
45240,0.69,0.45,0.21,0.55,-0.92,-2.99
45260,0.61,0.51,0.30,21.48,3.97,-39.37
45280,0.56,0.51,0.22,32.96,7.57,-58.23
45300,0.52,0.59,-0.03,37.84,14.65,-74.46
45320,0.43,0.96,-0.17,29.48,14.28,-94.36
45340,0.32,1.12,-0.08,29.54,9.03,-93.32
45360,0.35,0.73,0.26,29.05,0.49,-82.09
45380,0.24,1.17,0.07,39.06,21.42,-90.64
45400,0.06,1.49,-0.02,44.92,20.26,-70.37
45420,0.24,1.19,-0.30,43.15,24.05,-41.87
45440,0.33,1.11,-0.43,18.68,27.65,-40.89
45460,0.26,1.00,-0.35,1.16,27.16,-47.12
45480,0.17,1.19,-0.18,-0.92,26.79,-53.47
45500,-0.00,1.32,-0.01,15.50,17.76,-35.89
45520,0.14,1.06,-0.08,7.45,5.68,-16.48
45540,0.18,1.00,-0.11,0.85,6.71,-9.03
45560,0.20,1.00,-0.11,-0.31,5.43,-7.69
45580,0.19,0.99,-0.13,3.66,4.39,-6.35
45600,0.18,0.99,-0.13,1.65,4.15,-7.08
45620,0.18,1.01,-0.09,0.92,2.99,-6.29
45640,0.18,1.00,-0.11,3.23,2.99,-4.39
45660,0.17,1.00,-0.12,2.50,2.99,-3.91
45680,0.17,1.00,-0.12,1.89,2.08,-3.05
45700,0.17,1.00,-0.12,1.22,1.34,-2.50
45720,0.17,1.00,-0.12,0.98,1.04,-1.71
45740,0.18,1.00,-0.12,1.16,0.67,-0.92
45760,0.18,0.99,-0.13,0.79,0.61,-1.28
45780,0.18,0.99,-0.13,0.24,0.67,-1.22
45800,0.18,1.00,-0.13,-0.61,0.79,-1.59
45820,0.18,0.99,-0.13,-0.43,0.55,-1.10
45840,0.18,1.00,-0.13,-0.49,0.55,-0.92
45860,0.17,1.00,-0.13,-0.49,0.73,-0.49
45880,0.18,1.00,-0.13,0.06,0.61,0.12
45900,0.18,1.00,-0.13,0.00,0.43,0.24
45920,0.18,0.99,-0.13,0.00,0.61,0.49
45940,0.18,1.00,-0.13,0.55,0.79,0.24
45960,0.18,1.00,-0.13,1.22,0.73,0.24
45980,0.18,0.99,-0.13,1.16,0.85,0.24
46000,0.18,1.00,-0.13,0.92,1.10,0.31
46020,0.18,0.99,-0.13,0.67,1.34,0.79
46040,0.18,1.00,-0.13,0.37,1.77,0.79
46060,0.18,0.99,-0.14,0.49,1.65,1.04
46080,0.18,0.99,-0.13,-0.31,2.01,1.16
46100,0.15,1.00,-0.12,-0.37,1.59,1.77
46120,0.18,0.99,-0.14,-1.04,-0.37,4.09
46140,0.16,0.99,-0.15,-5.86,-4.33,6.96
46160,0.12,1.03,-0.12,-11.23,-9.46,10.86
46180,0.14,1.05,-0.11,-20.94,-15.87,19.65
46200,0.13,1.13,-0.09,-28.38,-20.14,28.32
46220,0.18,1.23,-0.17,-23.86,-24.11,36.99
46240,0.23,1.21,-0.19,-15.69,-26.49,46.20
46260,0.24,1.20,-0.20,-11.78,-18.37,58.35
46280,0.21,1.18,-0.24,-24.17,-12.94,62.13
46300,0.24,1.12,-0.20,-33.69,-15.99,67.81
46320,0.23,1.09,-0.13,-41.26,-17.09,75.68
46340,0.32,0.95,-0.00,-48.34,-14.28,78.74
46360,0.35,0.90,0.07,-48.58,-10.31,81.85
46380,0.33,0.96,0.10,-43.52,-6.96,82.40
46400,0.35,1.00,0.07,-39.43,-9.58,89.97
46420,0.44,0.85,0.01,-43.52,-9.40,94.79
46440,0.62,0.59,0.01,-47.24,-15.20,89.90
46460,0.63,0.45,0.01,-44.37,-10.68,62.56
46480,0.66,0.58,0.13,-37.96,-14.04,48.16
46500,0.72,0.49,0.21,-29.91,-13.79,35.77
46520,0.71,0.24,0.27,-12.82,-6.04,5.43
46540,0.66,0.42,0.40,-1.53,0.12,-11.29
46560,0.70,0.66,0.32,10.07,4.76,-27.04
46580,0.65,0.67,0.24,27.83,7.02,-47.79
46600,0.55,0.86,0.13,30.58,10.56,-57.43
46620,0.50,1.06,0.02,30.70,9.64,-57.68
46640,0.52,0.87,-0.09,22.77,5.92,-48.65
46660,0.64,0.11,-0.12,14.28,10.56,-56.58
46680,0.51,0.55,-0.17,-9.64,17.40,-78.80
46700,0.34,1.00,0.06,-2.87,-7.26,-90.64
46720,0.35,1.22,0.37,13.43,-14.83,-61.65
46740,0.48,0.85,0.40,34.91,-5.55,-57.68
46760,0.35,0.28,0.51,55.91,28.56,-82.34
46780,0.18,1.02,-0.16,54.81,33.45,-96.86
46800,0.12,1.36,-0.26,47.49,21.30,-82.70
46820,0.30,1.11,-0.24,39.25,15.56,-63.05
46840,0.59,1.17,0.02,31.56,33.87,-73.73
46860,-0.90,1.54,-0.81,70.31,109.86,-83.44
46880,-0.23,1.23,-0.19,84.72,18.92,-40.04
46900,0.23,0.97,-0.17,11.23,-3.30,-4.15
46920,0.21,0.94,-0.20,4.58,1.40,-7.69
46940,0.23,0.96,-0.16,0.49,0.49,-12.45
46960,0.17,1.00,-0.10,2.14,0.61,-16.48
46980,0.17,1.00,-0.13,2.81,-1.10,-16.54
47000,0.21,1.00,-0.12,2.75,-2.38,-16.66
47020,0.15,0.98,-0.16,2.93,0.00,-19.59
47040,0.12,1.00,-0.13,0.18,1.46,-15.14
47060,0.18,1.01,-0.13,-0.12,-1.10,-13.98
47080,0.11,1.00,-0.12,0.49,-2.32,-14.10
47100,0.17,1.02,-0.12,0.31,-4.94,-13.61
47120,0.16,1.00,-0.14,1.95,-6.16,-17.21
47140,0.12,0.99,-0.15,1.71,-4.82,-16.91
47160,0.13,0.98,-0.17,0.49,-3.78,-15.50
47180,0.08,0.98,-0.15,-0.98,-1.65,-14.34
47200,0.08,0.99,-0.14,-2.93,0.00,-6.96
47220,0.09,1.00,-0.12,-3.36,-0.18,-4.58
47240,0.07,1.00,-0.11,-2.99,0.43,-1.53
47260,0.13,1.01,-0.13,-2.32,-0.98,0.06
47280,0.09,1.00,-0.12,-1.65,-0.92,0.12
47300,0.07,0.99,-0.14,-2.38,-1.59,2.14
47320,0.13,1.00,-0.14,-3.17,-1.34,4.94
47340,0.09,0.99,-0.13,-3.42,-0.06,5.37
47360,0.16,1.00,-0.14,-4.33,-0.18,7.69
47380,0.13,1.00,-0.13,-3.85,0.43,4.27
47400,0.09,0.99,-0.13,-4.21,1.16,5.43
47420,0.15,1.00,-0.13,-4.88,1.28,8.73
47440,0.11,1.01,-0.11,-4.33,2.56,8.85
47460,0.12,1.00,-0.11,-2.01,3.36,13.12
47480,0.21,1.00,-0.13,-0.31,2.99,10.80
47500,0.15,1.00,-0.13,0.18,2.99,5.80
47520,0.14,1.00,-0.13,-0.73,5.07,7.20
47540,0.15,1.02,-0.09,-1.04,6.84,9.09
47560,0.15,1.00,-0.11,-0.18,6.90,11.29
47580,0.20,1.00,-0.13,2.14,3.97,10.44
47600,0.16,1.00,-0.13,1.22,3.97,2.81
47620,0.17,0.99,-0.14,0.31,2.93,2.81
47640,0.16,0.99,-0.13,-0.98,4.27,3.85
47660,0.17,1.00,-0.12,-3.78,5.07,6.59
47680,0.19,0.99,-0.14,-4.94,2.93,5.49
47700,0.20,0.99,-0.13,-5.13,1.46,2.87
47720,0.19,0.99,-0.13,-4.58,0.18,-0.24
47740,0.18,1.00,-0.13,-4.58,0.06,-0.98
47760,0.16,1.00,-0.11,-4.64,-0.67,-0.31
47780,0.18,1.00,-0.12,-4.58,-3.05,2.01
47800,0.18,1.00,-0.12,-4.21,-3.05,2.26
47820,0.17,1.00,-0.11,-4.03,-2.99,2.75
47840,0.19,1.00,-0.11,-4.33,-3.23,4.27
47860,0.19,1.00,-0.11,-3.54,-3.30,5.07
47880,0.18,1.00,-0.11,-2.81,-2.81,5.86
47900,0.17,1.01,-0.09,-3.48,-4.33,9.70
47920,0.17,1.03,-0.12,-4.21,-3.23,12.02
47940,0.16,1.04,-0.11,-6.53,-6.53,16.60
47960,0.15,1.08,-0.11,-8.73,-9.83,25.57
47980,0.22,1.06,-0.13,-5.55,-11.29,30.82
48000,0.23,1.08,-0.14,-3.54,-12.15,33.08
48020,0.22,1.13,-0.15,-2.69,-12.63,37.78
48040,0.30,1.04,-0.17,-8.06,-9.95,41.20
48060,0.23,1.14,-0.25,-16.11,-8.18,44.43
48080,0.24,1.12,-0.21,-25.21,-12.76,50.90
48100,0.29,1.05,-0.18,-40.04,-16.17,57.98
48120,0.32,1.00,-0.13,-48.40,-14.16,58.72
48140,0.34,0.95,-0.02,-55.42,-11.41,59.39
48160,0.36,0.94,0.13,-52.43,-6.84,59.27
48180,0.40,0.87,0.11,-46.88,-3.60,63.66
48200,0.48,0.76,0.11,-41.08,-3.23,63.11
48220,0.51,0.65,0.00,-36.32,-0.85,54.44
48240,0.53,0.64,0.09,-29.36,-7.87,43.64
48260,0.56,0.66,0.11,-24.72,-8.42,35.03
48280,0.58,0.72,0.18,-15.20,-6.47,19.59
48300,0.61,0.74,0.19,-8.12,-3.17,9.09
48320,0.62,0.63,0.25,2.75,-2.38,-0.61
48340,0.59,0.69,0.23,12.51,4.15,-17.94
48360,0.55,0.76,0.10,17.27,5.74,-27.34
48380,0.56,0.74,0.09,19.47,6.04,-35.64
48400,0.52,0.76,0.03,21.24,9.46,-48.89
48420,0.52,0.76,0.08,26.67,7.63,-55.24
48440,0.43,0.80,0.07,31.07,9.89,-61.89
48460,0.45,0.76,0.04,33.33,4.82,-65.55
48480,0.41,0.93,-0.06,23.62,6.23,-70.01
48500,0.31,1.05,0.01,19.71,9.09,-71.17
48520,0.32,0.87,0.10,25.21,10.19,-69.40
48540,0.27,0.88,0.06,33.57,20.75,-75.62
48560,0.09,1.25,0.02,39.31,22.28,-77.15
48580,0.40,1.13,-0.05,44.43,21.42,-61.89
48600,0.14,1.02,-0.82,32.04,63.84,-71.23
48620,-0.39,1.52,-0.02,30.76,37.72,-60.24
48640,0.03,1.12,-0.11,5.80,-6.29,-16.17
48660,0.20,1.00,-0.07,-6.23,0.06,0.00
48680,0.19,0.99,-0.12,-2.20,0.67,-1.89
48700,0.22,0.98,-0.12,0.18,5.62,-5.86
48720,0.22,0.97,-0.14,-0.37,5.43,-9.64
48740,0.19,0.98,-0.12,-1.95,3.97,-11.11
48760,0.16,1.00,-0.10,-2.93,4.03,-12.21
48780,0.15,1.02,-0.09,-2.81,0.85,-7.81
48800,0.17,1.01,-0.08,-2.26,0.67,-5.55
48820,0.16,1.01,-0.08,-0.12,1.16,-3.97
48840,0.16,1.01,-0.10,1.28,0.24,-0.49
48860,0.17,1.00,-0.10,1.34,-0.24,0.92
48880,0.17,1.00,-0.11,0.92,-0.24,1.71
48900,0.18,0.99,-0.11,0.49,-0.18,2.01
48920,0.19,0.99,-0.11,-0.31,0.49,1.22
48940,0.18,0.99,-0.11,-0.43,1.34,-0.24
48960,0.17,1.00,-0.11,-0.67,1.53,-0.61
48980,0.16,1.00,-0.10,-0.92,0.37,0.79
49000,0.18,1.00,-0.11,-1.40,-0.61,2.01
49020,0.18,0.99,-0.11,-2.14,-0.24,2.01
49040,0.19,0.99,-0.11,-2.26,0.43,1.71
49060,0.18,1.00,-0.10,-2.08,0.85,1.53
49080,0.16,1.00,-0.09,-1.28,0.18,2.01
49100,0.19,1.00,-0.10,-2.26,-1.28,4.33
49120,0.20,0.99,-0.11,-3.23,-0.49,4.64
49140,0.19,1.00,-0.11,-3.36,-0.67,4.03
49160,0.18,1.00,-0.10,-4.03,-0.79,4.33
49180,0.18,1.00,-0.10,-5.13,-1.22,6.04
49200,0.19,1.00,-0.10,-5.92,-1.71,8.00
49220,0.20,1.00,-0.10,-6.84,-2.01,10.56
49240,0.19,1.02,-0.08,-6.29,-2.08,13.67
49260,0.18,1.03,-0.08,-5.98,-2.81,17.76
49280,0.20,1.02,-0.11,-5.19,-3.30,23.13
49300,0.19,1.08,-0.11,-4.09,-5.25,26.43
49320,0.23,1.06,-0.12,-3.78,-8.42,30.09
49340,0.23,1.11,-0.14,-3.11,-8.73,31.37
49360,0.25,1.12,-0.18,-5.07,-8.30,40.16
49380,0.18,1.25,-0.18,-10.38,-5.98,46.51
49400,0.21,1.26,-0.14,-12.88,-10.38,57.98
49420,0.25,1.11,-0.22,-23.62,-10.74,71.47
49440,0.30,1.02,-0.18,-33.14,-12.88,74.58
49460,0.33,0.93,-0.10,-43.82,-12.70,78.00
49480,0.38,0.85,0.01,-51.15,-8.97,83.37
49500,0.46,0.75,0.10,-48.16,-8.73,81.48
49520,0.48,0.76,0.14,-44.68,-5.07,75.68
49540,0.57,0.61,0.10,-37.54,-11.41,67.02
49560,0.62,0.63,0.06,-32.78,-9.95,57.31
49580,0.63,0.65,0.08,-29.36,-10.38,45.41
49600,0.67,0.59,0.12,-20.51,-8.24,27.65
49620,0.63,0.63,0.23,-10.31,-7.20,15.20
49640,0.65,0.67,0.22,-3.85,-4.88,6.04
49660,0.65,0.67,0.13,0.73,0.98,-7.87
49680,0.61,0.77,0.13,7.08,2.32,-15.20
49700,0.59,0.82,0.06,8.97,3.60,-19.59
49720,0.60,0.80,0.06,10.01,1.53,-21.67
49740,0.60,0.77,0.09,10.25,2.38,-28.26
49760,0.64,0.68,0.15,11.05,3.66,-35.52
49780,0.60,0.61,0.14,14.77,6.90,-46.81
49800,0.50,0.76,0.20,32.04,5.37,-59.69
49820,0.49,0.81,0.06,35.71,7.32,-63.17
49840,0.59,0.52,-0.11,35.22,7.93,-69.89
49860,0.46,0.33,-0.09,22.89,15.56,-99.91
49880,0.30,0.92,0.06,17.33,10.44,-121.58
49900,0.22,0.98,0.18,29.48,11.17,-121.58
49920,0.05,1.15,0.20,48.71,22.22,-121.15
49940,0.39,1.71,-0.08,56.21,35.34,-113.83
49960,-0.35,1.25,-0.65,94.67,135.50,-108.64
49980,-0.52,1.11,-0.18,16.97,-20.94,-3.91
50000,0.18,1.07,-0.01,-13.18,-8.36,21.24
50020,0.27,0.93,-0.11,-3.72,-3.60,20.63
50040,0.28,0.93,-0.12,4.94,0.43,2.26
50060,0.26,0.94,-0.16,2.75,2.26,-4.33
50080,0.20,0.98,-0.20,-3.42,3.78,-10.93
50100,0.22,0.96,-0.16,-8.36,1.46,-13.12
50120,0.20,1.01,-0.08,-9.83,1.16,-14.53
50140,0.18,1.02,-0.08,-5.37,2.93,-14.95
50160,0.17,1.01,-0.09,-1.65,2.87,-13.61
50180,0.16,1.02,-0.10,1.59,1.16,-9.58
50200,0.16,1.00,-0.11,2.26,2.93,-5.62
50220,0.17,1.00,-0.11,2.08,1.71,-2.38
50240,0.18,0.99,-0.13,2.38,1.34,-0.79
50260,0.18,0.99,-0.13,0.98,2.01,-1.83
50280,0.17,0.99,-0.13,-0.85,1.95,-2.56
50300,0.17,1.00,-0.12,-2.69,1.40,-3.17
50320,0.17,1.00,-0.11,-3.11,0.98,-2.99
50340,0.17,1.00,-0.11,-2.62,0.85,-2.81
50360,0.17,1.00,-0.12,-2.08,0.79,-2.56
50380,0.17,1.00,-0.12,-2.26,0.67,-2.56
50400,0.17,1.00,-0.12,-2.44,0.37,-2.62
50420,0.17,1.00,-0.12,-2.01,0.37,-3.11
50440,0.17,1.00,-0.12,-1.71,0.73,-3.72
50460,0.16,1.00,-0.12,-1.53,0.98,-4.39
50480,0.16,1.00,-0.11,-1.46,0.37,-3.66
50500,0.17,1.00,-0.12,-1.53,0.06,-3.17
50520,0.16,1.00,-0.11,-1.71,0.55,-3.36
50540,0.16,1.00,-0.12,-1.53,0.67,-3.30
50560,0.16,1.00,-0.11,-0.98,0.73,-3.23
50580,0.15,1.00,-0.11,-0.49,0.43,-2.20
50600,0.16,1.00,-0.12,0.24,-0.18,-1.10
50620,0.16,1.00,-0.11,-0.06,-0.55,-0.24
50640,0.16,1.00,-0.12,0.12,-0.49,-0.18
50660,0.17,1.00,-0.12,0.49,-0.43,-0.31
50680,0.15,1.00,-0.12,0.67,0.18,-0.79
50700,0.16,1.00,-0.12,0.73,-0.18,-0.49
50720,0.15,1.00,-0.12,0.55,-0.31,0.06
50740,0.15,1.00,-0.12,0.43,-0.61,0.79
50760,0.16,1.00,-0.12,0.61,-0.79,1.16
50780,0.16,1.00,-0.12,0.73,-0.43,1.28
50800,0.17,1.00,-0.12,0.49,-0.49,1.46
50820,0.17,1.00,-0.13,0.49,-0.18,1.28
50840,0.16,1.00,-0.12,0.31,0.24,0.85
50860,0.17,0.99,-0.12,0.12,0.67,0.43
50880,0.17,0.99,-0.13,0.37,0.85,-0.18
50900,0.17,0.99,-0.13,0.18,1.40,-0.92
50920,0.16,1.00,-0.13,-0.49,1.46,-1.40
50940,0.16,1.00,-0.12,-1.34,1.65,-1.71
50960,0.17,1.00,-0.13,-1.65,1.46,-1.28
50980,0.16,1.00,-0.12,-1.34,1.89,-1.71
51000,0.16,1.00,-0.13,-0.31,1.40,-1.34
51020,0.16,1.00,-0.12,-0.24,1.46,-1.53
51040,0.17,0.99,-0.13,-0.06,1.40,-1.34
51060,0.15,1.00,-0.11,0.00,1.22,-1.28
51080,0.15,1.01,-0.11,1.59,0.79,-0.06
51100,0.15,1.00,-0.12,2.56,0.18,1.83
51120,0.17,0.99,-0.14,1.77,-1.04,3.17
51140,0.18,0.98,-0.16,-0.37,0.00,3.23
51160,0.17,0.99,-0.14,-2.56,-0.79,2.75
51180,0.17,1.00,-0.12,-1.59,0.24,2.75
51200,0.16,1.00,-0.13,-0.67,0.49,3.23
51220,0.12,1.02,-0.10,-0.24,-1.16,4.33
51240,0.21,0.97,-0.17,-4.64,-3.36,7.87
51260,0.21,0.97,-0.16,-7.51,0.49,2.32
51280,0.19,1.00,-0.11,-7.26,1.46,-0.55
51300,0.17,1.01,-0.10,-3.66,0.12,-0.61
51320,0.19,0.99,-0.14,-2.81,0.98,-0.92
51340,0.18,0.99,-0.13,-4.52,0.37,-1.34
51360,0.18,0.99,-0.14,-6.47,-0.85,-0.92
51380,0.18,0.99,-0.11,-8.97,-0.55,-2.26
51400,0.17,1.00,-0.11,-8.97,-0.79,-2.93
51420,0.17,1.01,-0.09,-8.30,-1.22,-2.26
51440,0.18,1.00,-0.10,-7.81,-0.79,-1.10
51460,0.19,1.00,-0.09,-6.90,-0.79,-1.16
51480,0.19,0.99,-0.11,-5.13,0.73,-2.26
51500,0.19,1.00,-0.10,-2.81,1.53,-4.27
51520,0.18,1.00,-0.10,-1.10,3.48,-5.55
51540,0.15,1.01,-0.09,-0.37,3.85,-6.04
51560,0.16,1.01,-0.08,0.43,1.22,-1.89
51580,0.17,1.00,-0.09,1.65,1.65,-0.43
51600,0.18,0.99,-0.11,2.32,2.87,0.31
51620,0.18,1.00,-0.09,2.87,5.37,-1.04
51640,0.19,0.99,-0.12,4.88,7.87,-2.26
51660,0.10,1.03,-0.06,5.31,8.73,-2.56
51680,0.16,1.00,-0.10,7.32,4.09,3.36
51700,0.16,1.00,-0.10,8.48,4.88,4.64
51720,0.20,0.99,-0.12,10.31,5.19,6.16
51740,0.20,0.97,-0.16,10.31,8.30,2.50
51760,0.16,1.00,-0.13,9.46,7.57,2.08
51780,0.15,1.01,-0.11,9.52,6.53,3.17
51800,0.17,1.01,-0.11,10.74,6.04,8.67
51820,0.19,0.99,-0.16,12.57,6.96,9.52
51840,0.21,0.97,-0.19,11.90,7.75,8.85
51860,0.21,0.98,-0.17,9.77,7.69,5.55
51880,0.21,0.97,-0.19,9.16,9.09,1.89
51900,0.15,1.01,-0.15,8.48,9.46,0.92
51920,0.18,1.00,-0.14,9.34,6.53,4.52
51940,0.21,0.97,-0.19,11.90,4.46,8.36
51960,0.21,0.97,-0.20,10.99,6.04,6.29
51980,0.21,0.97,-0.20,9.70,5.86,4.03
52000,0.21,0.98,-0.19,7.75,5.98,2.93
52020,0.22,0.95,-0.22,7.93,7.39,2.44
52040,0.20,0.97,-0.21,6.53,7.81,1.53
52060,0.17,1.00,-0.18,4.52,5.80,2.14
52080,0.19,0.99,-0.19,4.09,3.91,5.25
52100,0.21,0.97,-0.22,3.48,4.09,7.14
52120,0.22,0.95,-0.23,0.37,5.31,6.23
52140,0.23,0.95,-0.23,-2.20,5.68,4.09
52160,0.22,0.97,-0.22,-3.91,5.68,2.44
52180,0.22,0.96,-0.22,-4.33,4.88,1.53
52200,0.20,0.98,-0.20,-3.85,4.03,1.40
52220,0.21,0.98,-0.20,-2.75,2.99,1.89
52240,0.22,0.96,-0.21,-1.46,2.75,1.77
52260,0.22,0.96,-0.22,-1.16,2.44,0.31
52280,0.22,0.96,-0.22,-1.65,2.01,-1.04
52300,0.22,0.97,-0.22,-2.20,1.83,-1.65
52320,0.21,0.98,-0.20,-3.05,1.77,-2.14
52340,0.21,0.97,-0.21,-2.87,1.59,-1.71
52360,0.21,0.98,-0.20,-2.62,1.34,-1.16
52380,0.22,0.97,-0.21,-2.14,1.28,-0.43
52400,0.22,0.97,-0.21,-2.08,1.65,-0.79
52420,0.21,0.98,-0.20,-2.38,1.71,-1.10
52440,0.21,0.98,-0.20,-1.83,1.46,-1.04