timestamp,accX,accY,accZ,gyrX,gyrY,gyrZ
0,0.22,1.00,-0.09,-7.81,-4.03,1.65
20,0.23,0.98,-0.11,-5.62,-4.03,2.08
40,0.23,0.99,-0.11,-5.37,-3.91,1.89
60,0.22,0.99,-0.09,-5.55,-3.91,1.95
80,0.24,0.98,-0.09,-4.82,-4.27,2.26
100,0.25,0.96,-0.09,-4.21,-3.11,0.79
120,0.25,0.96,-0.09,-2.87,-1.46,-1.22
140,0.25,0.96,-0.10,-2.81,0.06,-3.72
160,0.22,1.00,-0.09,-3.17,0.98,-5.55
180,0.19,1.03,-0.10,-2.38,-0.24,-2.08
200,0.22,1.01,-0.08,-2.50,-1.83,1.83
220,0.24,0.99,-0.09,-1.83,-1.04,2.93
240,0.25,0.96,-0.10,-2.75,-0.06,2.32
260,0.23,0.98,-0.10,-4.03,1.16,1.59
280,0.17,1.07,-0.12,-4.94,0.37,2.69
300,0.19,1.11,-0.10,-7.45,-5.43,15.63
320,0.22,1.07,-0.14,-9.16,-4.76,21.55
340,0.24,1.04,-0.20,-13.61,-1.04,23.32
360,0.22,1.09,-0.16,-21.79,-3.05,26.86
380,0.19,1.20,-0.11,-25.63,-6.59,33.69
400,0.23,1.11,-0.05,-26.73,-10.31,44.98
420,0.24,1.12,-0.07,-27.04,-6.41,53.59
440,0.27,1.08,-0.03,-27.04,-8.48,59.57
460,0.34,0.94,0.02,-25.27,-10.80,62.99
480,0.31,1.01,0.00,-23.32,-7.81,62.99
500,0.41,0.94,0.07,-23.80,-8.79,66.83
520,0.39,0.98,0.04,-21.73,-5.31,65.12
540,0.45,0.93,0.06,-19.96,-8.54,69.52
560,0.55,0.73,0.04,-22.52,-16.11,61.46
580,0.59,0.60,-0.02,-23.32,-12.76,51.57
600,0.61,0.65,-0.03,-22.46,-11.84,35.89
620,0.60,0.61,0.13,-14.71,-14.71,16.97
640,0.58,0.66,0.27,-10.07,-12.63,6.16
660,0.55,0.74,0.22,-8.18,-5.98,-0.67
680,0.56,0.75,0.14,-1.46,0.92,-8.06
700,0.59,0.69,0.13,5.49,4.09,-14.47
720,0.65,0.66,0.15,12.70,6.10,-24.41
740,0.63,0.28,0.20,27.47,7.93,-51.94
760,0.53,0.59,-0.03,26.31,19.04,-76.66
780,0.30,1.18,-0.03,30.09,13.67,-84.11
800,0.38,1.04,0.10,38.82,5.25,-59.63
820,0.48,0.79,0.09,43.52,8.79,-61.22
840,0.37,0.61,0.10,45.84,20.45,-72.81
860,0.16,1.02,-0.22,28.93,23.44,-76.54
880,0.11,1.47,-0.20,21.30,8.42,-56.27
900,0.26,1.19,-0.14,22.22,4.33,-33.69
920,0.36,0.97,-0.17,15.56,10.80,-34.18
940,0.43,0.75,-0.04,10.86,21.97,-50.23
960,0.18,1.23,-0.22,7.51,34.18,-60.36
980,-0.08,1.52,-0.18,3.48,19.41,-21.61
1000,0.24,1.03,-0.10,3.17,0.18,-3.23
1020,0.28,0.95,-0.12,1.04,0.92,-2.50
1040,0.28,0.96,-0.05,0.79,5.86,-7.69
1060,0.24,0.97,-0.06,8.36,13.92,-14.71
1080,0.13,1.07,-0.09,12.21,11.47,-13.92
1100,0.23,0.97,-0.18,12.27,1.22,-7.69
1120,0.23,0.98,-0.15,3.48,-0.92,-8.97
1140,0.22,0.99,-0.13,0.18,0.24,-10.68
1160,0.21,1.00,-0.10,-2.56,0.73,-12.45
1180,0.22,1.00,-0.10,-2.44,2.56,-14.53
1200,0.15,1.03,-0.11,0.00,2.56,-15.63
1220,0.15,1.01,-0.09,-1.65,2.69,-9.03
1240,0.19,0.99,-0.12,-4.39,-2.32,-4.46
1260,0.20,1.00,-0.10,-4.21,-0.18,-4.03
1280,0.19,1.00,-0.10,-2.32,1.46,-3.05
1300,0.19,1.00,-0.10,-1.89,1.22,-3.11
1320,0.19,1.00,-0.10,-1.83,1.28,-2.62
1340,0.19,1.00,-0.11,-1.59,2.62,-3.42
1360,0.19,1.00,-0.11,-1.04,3.72,-4.09
1380,0.15,1.01,-0.09,-0.85,2.20,-2.26
1400,0.17,1.00,-0.10,-1.53,-0.12,1.59
1420,0.19,0.99,-0.11,-2.26,-0.31,2.20
1440,0.19,1.00,-0.10,-2.01,0.79,1.95
1460,0.19,0.99,-0.11,-1.83,2.14,1.71
1480,0.17,1.00,-0.10,-3.05,2.26,1.28
1500,0.18,1.00,-0.10,-4.94,-0.79,3.42
1520,0.19,1.00,-0.10,-7.08,-1.22,5.13
1540,0.19,1.00,-0.11,-8.06,-1.77,4.94
1560,0.19,1.01,-0.07,-9.95,-2.62,5.80
1580,0.17,1.01,-0.10,-9.34,-1.34,7.32
1600,0.17,1.03,-0.10,-14.04,-2.50,10.56
1620,0.18,1.09,-0.07,-19.41,-5.92,23.38
1640,0.10,1.22,-0.20,-17.09,-7.02,29.11
1660,0.18,1.30,-0.16,-13.49,-19.53,40.47
1680,0.20,1.27,-0.13,-15.01,-15.14,57.68
1700,0.20,1.23,-0.17,-20.69,-16.66,69.82
1720,0.20,1.15,-0.17,-28.81,-17.33,79.10
1740,0.23,1.08,-0.11,-39.25,-18.37,88.32
1760,0.32,0.95,0.01,-41.20,-21.55,95.09
1780,0.42,0.84,0.09,-42.54,-17.94,94.91
1800,0.46,0.79,0.10,-40.04,-14.59,85.21
1820,0.55,0.61,0.18,-34.61,-8.30,74.65
1840,0.59,0.54,0.18,-28.50,-12.88,57.50
1860,0.60,0.51,0.14,-21.73,-7.63,43.21
1880,0.60,0.54,0.14,-10.99,-6.84,20.94
1900,0.62,0.63,0.18,-3.72,-5.31,7.02
1920,0.62,0.65,0.18,3.60,-3.23,-2.93
1940,0.64,0.59,0.18,11.90,1.04,-21.18
1960,0.61,0.61,0.10,15.14,7.02,-36.19
1980,0.55,0.74,0.02,19.90,9.34,-49.38
2000,0.48,0.89,0.13,28.38,4.88,-56.40
2020,0.42,0.98,0.15,30.64,7.20,-55.85
2040,0.46,0.88,0.08,32.59,6.65,-50.84
2060,0.48,0.86,-0.17,24.48,13.73,-52.73
2080,0.34,1.05,-0.10,18.01,13.55,-56.76
2100,0.33,1.05,0.03,16.36,9.95,-51.09
2120,0.28,1.01,0.12,23.44,6.96,-44.25
2140,0.30,1.05,0.01,26.61,8.24,-34.30
2160,0.38,0.89,-0.15,21.85,13.37,-30.27
2180,0.36,0.92,-0.23,13.85,15.93,-41.14
2200,0.29,0.91,-0.05,7.14,12.39,-43.82
2220,0.16,1.18,0.03,8.12,10.50,-41.20
2240,0.23,1.15,0.02,12.70,1.89,-26.43
2260,0.31,0.98,-0.18,11.23,9.70,-17.21
2280,0.32,0.96,-0.19,6.23,12.45,-21.00
2300,0.32,0.96,-0.10,1.28,14.47,-25.21
2320,0.29,1.00,-0.04,3.60,23.07,-34.91
2340,0.17,1.10,-0.20,6.35,28.08,-36.87
2360,0.13,1.11,-0.09,11.17,16.91,-31.25
2380,0.15,1.06,-0.11,7.57,9.95,-18.92
2400,0.17,1.04,-0.08,2.08,2.75,-13.06
2420,0.20,1.02,-0.07,-1.16,1.28,-9.40
2440,0.21,0.99,-0.10,0.18,4.39,-9.77
2460,0.19,1.00,-0.10,2.26,4.27,-11.05
2480,0.18,1.00,-0.10,2.14,3.11,-9.95
2500,0.18,1.00,-0.10,0.79,1.65,-6.29
2520,0.18,1.00,-0.10,0.00,0.55,-4.82
2540,0.18,1.00,-0.10,-0.73,0.24,-4.21
2560,0.18,1.00,-0.09,-0.73,0.79,-2.69
2580,0.18,1.00,-0.09,0.06,0.98,-1.59
2600,0.18,1.00,-0.10,1.10,0.67,-0.79
2620,0.19,1.00,-0.10,2.26,0.98,-0.12
2640,0.19,0.99,-0.11,2.14,1.34,-0.12
2660,0.19,0.99,-0.11,1.10,1.34,-0.49
2680,0.19,0.99,-0.11,0.00,1.16,-0.61
2700,0.18,1.00,-0.10,-1.16,1.04,-0.49
2720,0.18,1.00,-0.11,-1.28,0.79,-0.24
2740,0.18,1.00,-0.11,-1.71,0.61,0.31
2760,0.17,1.00,-0.10,-1.95,-0.37,1.83
2780,0.14,1.01,-0.09,-2.44,-1.10,3.48
2800,0.18,1.00,-0.10,-4.76,-3.85,7.39
2820,0.19,1.00,-0.10,-9.34,-5.37,9.77
2840,0.16,1.03,-0.07,-11.29,-5.74,11.60
2860,0.19,1.03,-0.08,-12.88,-7.26,16.72
2880,0.16,1.08,-0.09,-12.70,-6.41,21.55
2900,0.18,1.14,-0.14,-12.51,-10.44,28.56
2920,0.18,1.22,-0.11,-9.77,-14.59,35.83
2940,0.23,1.22,-0.14,-7.63,-9.89,51.51
2960,0.25,1.08,-0.18,-13.92,-8.24,57.19
2980,0.25,1.06,-0.20,-21.85,-7.20,57.80
3000,0.28,0.99,-0.13,-31.86,-12.51,60.36
3020,0.31,0.95,-0.08,-35.58,-14.22,60.79
3040,0.33,0.95,0.02,-36.68,-14.53,61.34
3060,0.37,0.92,0.07,-36.80,-12.63,62.87
3080,0.40,0.88,0.05,-32.90,-3.78,60.36
3100,0.45,0.85,0.06,-31.43,-3.85,58.78
3120,0.49,0.82,0.08,-28.99,-2.44,56.09
3140,0.53,0.77,0.06,-25.27,-5.92,45.04
3160,0.54,0.80,0.13,-20.26,-7.69,39.92
3180,0.54,0.77,0.16,-14.47,-7.39,34.55
3200,0.61,0.66,0.17,-3.48,-7.39,23.93
3220,0.64,0.59,0.15,4.27,-2.99,11.41
3240,0.66,0.47,0.22,10.99,-1.77,-3.60
3260,0.63,0.42,0.06,17.94,8.48,-35.77
3280,0.55,0.66,-0.07,20.75,10.68,-54.14
3300,0.48,0.88,0.02,24.66,4.21,-61.10
3320,0.41,0.96,0.16,29.42,1.65,-57.74
3340,0.44,0.83,0.19,34.55,5.07,-55.48
3360,0.48,0.64,-0.06,33.14,16.05,-58.59
3380,0.36,0.90,-0.24,17.70,19.78,-72.51
3400,0.14,1.34,-0.09,15.69,15.32,-62.74
3420,0.28,1.20,0.11,19.41,3.30,-44.56
3440,0.32,0.98,0.11,24.90,13.24,-34.36
3460,0.33,0.75,-0.09,25.39,25.57,-41.08
3480,0.25,1.01,-0.27,20.26,23.74,-46.02
3500,0.31,1.05,-0.19,11.17,14.10,-43.33
3520,0.35,1.00,-0.11,5.98,19.59,-42.18
3540,0.35,0.99,-0.18,4.82,30.70,-50.42
3560,0.18,1.15,-0.31,5.98,39.06,-59.45
3580,-0.03,1.30,0.07,19.29,11.29,-41.26
3600,0.07,1.06,-0.15,5.98,7.57,-8.85
3620,0.19,0.99,-0.10,0.49,1.10,-2.99
3640,0.21,0.99,-0.11,0.79,1.59,-4.64
3660,0.21,0.98,-0.13,1.16,2.87,-5.74
3680,0.20,0.99,-0.12,1.28,0.06,-8.18
3700,0.17,1.00,-0.10,0.00,-1.40,-6.59
3720,0.19,0.99,-0.11,-1.34,-1.77,-4.58
3740,0.17,0.99,-0.14,-1.77,2.75,-2.99
3760,0.19,1.03,-0.09,-0.79,0.49,-3.60
3780,0.18,1.00,-0.09,0.37,1.16,-2.44
3800,0.18,1.00,-0.10,1.28,1.28,-0.92
3820,0.18,1.00,-0.11,1.46,-0.43,1.04
3840,0.19,0.99,-0.12,0.92,-0.18,1.22
3860,0.20,0.99,-0.12,0.37,0.31,0.79
3880,0.19,0.99,-0.12,-0.85,0.67,-0.24
3900,0.19,0.99,-0.11,-1.22,0.92,-0.18
3920,0.19,1.00,-0.11,-1.22,0.67,0.00
3940,0.18,1.00,-0.11,-1.04,0.43,0.85
3960,0.19,1.00,-0.11,-1.16,-0.55,2.26
3980,0.17,1.01,-0.10,-2.01,-1.22,2.75
4000,0.18,1.01,-0.09,-2.08,-2.69,5.19
4020,0.16,1.02,-0.08,-2.87,-4.27,9.95
4040,0.17,1.04,-0.12,-4.88,-6.59,15.63
4060,0.18,1.04,-0.12,-7.39,-9.03,21.48
4080,0.20,1.08,-0.14,-9.70,-10.86,29.05
4100,0.24,1.09,-0.13,-8.24,-13.37,32.71
4120,0.24,1.11,-0.18,-7.57,-13.00,35.03
4140,0.26,1.08,-0.22,-15.14,-10.31,40.89
4160,0.23,1.13,-0.23,-25.33,-10.44,44.43
4180,0.24,1.12,-0.18,-33.14,-13.85,50.48
4200,0.25,1.09,-0.03,-36.44,-15.08,58.96
4220,0.30,0.98,0.04,-36.32,-14.10,62.07
4240,0.36,0.89,0.08,-33.20,-12.33,63.35
4260,0.39,0.86,0.06,-30.33,-7.81,58.96
4280,0.42,0.87,0.03,-29.05,-5.31,55.91
4300,0.48,0.80,-0.01,-29.36,-4.58,53.53
4320,0.50,0.81,0.01,-30.27,-3.05,45.41
4340,0.53,0.73,0.02,-29.97,-8.24,39.06
4360,0.54,0.72,0.09,-28.50,-8.24,33.33
4380,0.55,0.73,0.12,-24.78,-7.32,25.39
4400,0.59,0.71,0.15,-16.42,-2.87,13.85
4420,0.64,0.59,0.15,-10.13,-0.67,3.54
4440,0.66,0.52,0.22,-3.72,3.60,-13.49
4460,0.54,0.75,0.23,13.24,4.94,-35.34
4480,0.48,0.87,0.16,23.93,4.03,-39.98
4500,0.53,0.79,0.08,28.87,2.26,-41.26
4520,0.58,0.49,0.00,28.69,11.66,-54.02
4540,0.40,0.90,0.03,27.40,13.79,-67.38
4560,0.35,1.03,0.05,29.85,6.84,-68.24
4580,0.22,1.12,0.06,31.49,-0.98,-46.75
4600,0.31,1.06,-0.02,31.74,9.16,-38.02
4620,0.45,0.65,0.01,29.42,13.55,-37.54
4640,0.43,0.56,-0.18,8.54,28.56,-67.44
4660,0.10,1.39,-0.19,0.24,17.64,-74.58
4680,0.16,1.41,0.08,2.32,0.73,-51.94
4700,0.25,1.16,0.02,11.11,14.34,-28.32
4720,0.44,0.81,-0.05,18.31,27.34,-36.07
4740,0.33,1.01,-0.33,18.68,45.41,-54.26
4760,-0.11,1.39,-0.03,18.13,24.35,-49.13
4780,0.23,1.02,-0.11,13.12,0.00,-4.88
4800,0.22,0.99,-0.08,3.54,1.10,-2.08
4820,0.25,0.97,-0.09,3.60,0.43,-6.10
4840,0.21,0.98,-0.12,4.58,5.07,-12.45
4860,0.19,1.00,-0.10,3.42,3.23,-14.22
4880,0.18,1.00,-0.10,1.77,1.53,-12.39
4900,0.17,1.00,-0.11,-0.73,0.85,-8.00
4920,0.18,1.00,-0.09,-0.92,-0.92,-6.96
4940,0.18,1.00,-0.08,0.37,-0.67,-6.10
4960,0.18,1.00,-0.09,1.89,0.43,-4.09
4980,0.18,1.00,-0.10,2.56,0.24,-2.81
5000,0.18,1.00,-0.10,2.32,-0.18,-2.14
5020,0.19,1.00,-0.11,1.04,0.37,-1.83
5040,0.18,1.00,-0.11,0.18,0.61,-1.83
5060,0.18,1.00,-0.10,-0.67,0.37,-1.34
5080,0.18,1.00,-0.10,-0.18,0.31,-0.67
5100,0.18,1.00,-0.10,0.55,0.85,-0.37
5120,0.18,1.00,-0.10,1.89,0.55,0.18
5140,0.18,1.00,-0.10,2.44,0.92,0.73
5160,0.19,0.99,-0.11,1.65,0.79,0.61
5180,0.19,1.00,-0.11,1.04,0.61,0.31
5200,0.19,1.00,-0.11,0.73,0.67,0.18
5220,0.18,1.00,-0.11,0.43,1.04,0.00
5240,0.18,1.00,-0.10,0.61,1.04,0.18
5260,0.15,1.01,-0.09,0.49,0.18,1.59
5280,0.17,1.00,-0.12,-0.67,-3.60,7.87
5300,0.14,1.02,-0.10,-4.76,-7.02,11.29
5320,0.17,1.03,-0.09,-9.64,-9.89,17.21
5340,0.17,1.07,-0.11,-13.92,-11.41,24.05
5360,0.16,1.18,-0.10,-14.10,-14.65,31.92
5380,0.20,1.17,-0.21,-9.16,-17.03,41.50
5400,0.31,1.12,-0.23,-13.49,-16.05,52.37
5420,0.23,1.09,-0.25,-25.39,-10.19,54.20
5440,0.25,1.09,-0.21,-36.62,-13.24,55.79
5460,0.25,1.03,-0.06,-45.53,-16.11,60.67
5480,0.30,0.97,0.00,-46.39,-12.15,62.07
5500,0.34,0.92,0.03,-44.56,-8.91,63.54
5520,0.38,0.92,0.07,-41.08,-1.89,64.03
5540,0.41,0.91,0.07,-37.90,-2.75,64.15
5560,0.46,0.81,0.06,-34.85,-2.81,63.54
5580,0.55,0.67,0.14,-30.94,-4.70,52.31
5600,0.55,0.71,0.14,-21.97,-6.77,39.18
5620,0.56,0.71,0.13,-16.78,-5.19,33.02
5640,0.57,0.73,0.15,-8.12,-5.43,23.99
5660,0.60,0.67,0.19,5.98,-4.76,11.78
5680,0.60,0.57,0.17,13.12,-2.32,0.31
5700,0.65,0.53,0.11,13.43,1.40,-15.32
5720,0.56,0.72,-0.00,15.20,5.98,-38.33
5740,0.50,0.87,0.05,18.98,3.72,-44.80
5760,0.46,0.94,0.16,22.89,0.98,-46.75
5780,0.48,0.75,0.24,35.89,5.43,-51.45
5800,0.49,0.60,0.13,44.01,11.60,-57.74
5820,0.51,0.49,-0.18,35.77,17.46,-66.77
5840,0.23,1.17,-0.19,19.84,9.89,-79.41
5860,0.18,1.33,-0.01,17.09,6.96,-66.10
5880,0.30,0.91,0.12,19.84,5.68,-53.77
5900,0.30,0.83,0.08,26.43,22.77,-62.74
5920,0.27,0.96,-0.16,21.79,28.44,-68.66
5940,0.35,1.17,-0.27,15.44,35.16,-74.40
5960,-0.17,1.51,-0.70,16.48,38.82,-71.35
5980,-0.13,1.38,0.18,19.71,4.70,-28.93
6000,0.23,1.00,-0.11,5.68,-15.08,9.16
6020,0.27,0.94,-0.14,-1.65,-2.20,8.12
6040,0.23,0.97,-0.09,-1.59,2.32,-0.12
6060,0.23,0.98,-0.10,0.67,2.08,-2.87
6080,0.22,0.98,-0.11,0.67,1.22,-5.68
6100,0.22,0.98,-0.13,-1.53,1.22,-9.03
6120,0.20,1.00,-0.10,-3.91,1.22,-10.62
6140,0.20,1.02,-0.02,-4.82,0.18,-9.22
6160,0.18,1.01,-0.07,-2.50,-1.34,-4.64
6180,0.20,1.00,-0.08,0.00,-1.46,-3.11
6200,0.20,1.00,-0.09,0.92,1.16,-1.95
6220,0.20,0.99,-0.09,0.85,0.31,-1.59
6240,0.19,1.00,-0.09,1.16,1.04,-1.89
6260,0.19,1.00,-0.09,0.79,1.46,-1.83
6280,0.19,1.00,-0.12,0.67,0.31,-0.61
6300,0.19,1.00,-0.09,0.55,0.12,-0.31
6320,0.20,0.99,-0.09,0.98,0.12,-0.43
6340,0.20,0.99,-0.11,-1.04,0.55,-1.46
6360,0.20,1.00,-0.10,-1.28,1.04,-2.08
6380,0.19,1.00,-0.10,-1.59,1.22,-2.20
6400,0.20,1.00,-0.09,-0.49,1.59,-2.20
6420,0.19,1.00,-0.09,0.79,2.08,-2.14
6440,0.19,1.00,-0.09,2.08,2.69,-1.71
6460,0.19,1.00,-0.10,2.01,2.99,-1.40
6480,0.19,1.00,-0.10,0.55,1.59,-0.06
6500,0.17,1.00,-0.10,-0.43,1.04,0.37
6520,0.19,0.99,-0.11,-1.83,-0.37,1.65
6540,0.19,0.99,-0.10,-4.70,-1.46,2.20
6560,0.17,1.01,-0.09,-6.71,-2.08,3.11
6580,0.16,1.02,-0.07,-10.50,-3.85,6.10
6600,0.15,1.03,-0.10,-17.03,-6.35,12.57
6620,0.17,1.06,-0.09,-23.50,-7.08,18.43
6640,0.16,1.11,-0.17,-25.33,-6.35,27.89
6660,0.24,1.17,-0.15,-26.73,-19.84,40.53
6680,0.19,1.29,-0.17,-29.24,-14.16,46.75
6700,0.17,1.27,-0.11,-34.91,-15.38,59.81
6720,0.16,1.27,-0.12,-42.48,-12.70,76.97
6740,0.22,1.07,-0.07,-45.04,-12.70,87.95
6760,0.32,0.92,0.00,-49.50,-7.87,94.60
6780,0.33,0.90,0.05,-52.12,-3.30,91.67
6800,0.45,0.75,0.16,-48.40,-3.05,87.52
6820,0.50,0.72,0.16,-42.30,-3.11,79.04
6840,0.61,0.56,0.17,-36.25,-4.09,69.21
6860,0.64,0.57,0.11,-18.37,-10.07,44.13
6880,0.64,0.47,0.15,-5.68,-11.54,30.58
6900,0.63,0.36,0.25,3.54,-10.07,10.19
6920,0.61,0.60,0.36,8.42,-2.26,-24.11
6940,0.57,0.67,0.34,22.52,1.46,-38.76
6960,0.53,0.81,0.21,35.46,7.81,-49.74
6980,0.46,0.88,0.06,47.18,5.19,-56.21
7000,0.46,0.86,-0.03,46.69,4.03,-55.85
7020,0.52,0.71,-0.16,35.22,4.82,-56.88
7040,0.41,0.93,-0.08,19.90,3.91,-68.18
7060,0.30,0.98,0.10,21.06,-0.06,-64.09
7080,0.26,1.14,0.12,21.67,0.43,-57.07
7100,0.30,0.93,0.03,24.29,3.17,-44.43
7120,0.35,0.80,-0.09,21.85,13.85,-48.52
7140,0.36,0.80,-0.08,17.21,14.16,-58.59
7160,0.20,1.05,-0.07,16.97,8.91,-65.49
7180,0.16,1.38,0.09,21.00,4.94,-48.77
7200,0.16,1.22,-0.06,31.92,19.96,-31.74
7220,0.35,1.03,-0.19,40.04,29.48,-30.33
7240,0.21,1.12,-0.22,33.81,29.05,-31.19
7260,0.01,1.18,-0.03,28.44,14.59,-22.83
7280,0.20,1.02,-0.10,14.16,-1.53,-5.92
7300,0.23,0.98,-0.11,3.78,3.30,-3.17
7320,0.23,0.99,-0.11,5.43,5.55,-5.74
7340,0.24,0.99,-0.07,9.28,8.73,-5.74
7360,0.20,1.00,-0.11,11.17,7.87,-5.37
7380,0.21,0.98,-0.14,13.49,9.16,-3.23
7400,0.19,0.98,-0.16,8.91,8.79,-4.03
7420,0.19,0.99,-0.13,3.42,3.36,-4.58
7440,0.20,0.99,-0.14,2.26,2.08,-4.21
7460,0.19,0.99,-0.13,1.40,1.16,-4.70
7480,0.21,0.98,-0.16,0.79,0.18,-6.41
7500,0.20,0.98,-0.15,-1.10,-0.31,-8.97
7520,0.18,0.99,-0.14,-2.20,-1.16,-9.28
7540,0.18,1.00,-0.14,-3.36,-0.85,-7.14
7560,0.18,1.00,-0.13,-3.36,-0.73,-5.68
7580,0.18,1.00,-0.13,-2.44,-0.18,-4.15
7600,0.17,1.00,-0.13,-0.92,0.61,-1.59
7620,0.18,0.99,-0.14,-0.37,0.49,-1.04
7640,0.17,1.00,-0.13,0.31,0.55,-0.12
7660,0.18,0.99,-0.14,0.61,0.73,0.61
7680,0.18,0.99,-0.14,0.67,1.28,1.46
7700,0.18,0.99,-0.14,1.16,1.34,2.08
7720,0.19,0.99,-0.14,1.40,1.65,2.38
7740,0.19,0.99,-0.15,0.12,0.67,1.71
7760,0.19,0.99,-0.15,-0.92,0.73,1.22
7780,0.19,0.99,-0.15,-2.01,1.46,1.28
7800,0.17,0.99,-0.13,-2.93,1.46,2.38
7820,0.16,0.99,-0.13,-2.26,1.53,4.88
7840,0.19,0.99,-0.14,-4.46,0.37,8.54
7860,0.19,1.00,-0.11,-3.78,-1.65,7.14
7880,0.14,1.01,-0.12,-1.65,-2.56,8.91
7900,0.15,1.01,-0.14,-5.19,-5.86,17.09
7920,0.17,1.04,-0.14,-17.88,-15.26,25.33
7940,0.17,1.13,-0.11,-24.60,-20.81,27.89
7960,0.14,1.25,-0.18,-20.26,-24.11,32.23
7980,0.28,1.20,-0.20,-14.22,-28.50,46.26
8000,0.29,1.16,-0.22,-14.95,-21.73,54.20
8020,0.24,1.18,-0.22,-23.56,-15.38,58.23
8040,0.25,1.10,-0.17,-46.45,-16.60,65.19
8060,0.31,0.96,-0.07,-39.31,-17.64,68.24
8080,0.34,0.89,-0.01,-41.56,-15.99,69.34
8100,0.40,0.81,0.06,-40.65,-14.10,69.21
8120,0.46,0.78,0.11,-33.20,-9.16,60.55
8140,0.51,0.73,0.11,-26.92,-8.24,54.38
8160,0.54,0.68,0.08,-21.55,-5.55,46.94
8180,0.57,0.64,0.09,-12.45,-5.13,29.60
8200,0.57,0.67,0.08,-6.59,-2.99,19.41
8220,0.60,0.67,0.10,-0.67,-2.56,8.42
8240,0.64,0.53,0.13,8.54,1.04,-9.52
8260,0.61,0.49,0.09,13.43,7.57,-29.72
8280,0.57,0.60,0.07,16.91,10.31,-49.19
8300,0.42,0.97,0.01,29.42,10.50,-60.18
8320,0.37,1.07,0.05,32.90,5.55,-54.75
8340,0.45,0.92,0.02,35.40,4.52,-48.34
8360,0.45,0.44,-0.02,32.10,14.04,-57.19
8380,0.24,0.94,-0.24,20.51,30.70,-75.56
8400,0.22,1.21,-0.20,16.42,15.20,-70.01
8420,0.19,1.28,-0.07,15.50,4.70,-45.17
8440,0.34,0.95,0.03,17.52,12.02,-41.50
8460,0.43,0.71,0.02,20.69,22.16,-49.44
8480,0.41,0.77,-0.15,20.57,49.13,-77.09
8500,-0.01,1.42,-0.64,10.68,66.16,-81.24
8520,-0.07,1.61,0.39,24.90,14.53,-46.81
8540,0.14,1.10,-0.05,3.17,-5.19,-3.91
8560,0.25,0.98,-0.10,-3.66,-4.03,0.79
8580,0.24,0.96,-0.13,-1.04,5.37,-2.20
8600,0.22,0.96,-0.16,0.18,5.80,-6.77
8620,0.18,0.99,-0.14,-0.37,6.04,-9.89
8640,0.16,1.01,-0.11,-0.43,2.50,-8.30
8660,0.17,1.00,-0.12,-1.10,0.06,-3.60
8680,0.20,0.99,-0.13,-3.48,0.06,-0.67
8700,0.19,1.00,-0.12,-4.09,0.43,-1.10
8720,0.19,1.00,-0.11,-3.30,0.49,-0.79
8740,0.19,1.00,-0.11,-0.67,0.37,-0.18
8760,0.19,0.99,-0.12,0.24,0.06,0.43
8780,0.20,0.98,-0.13,0.37,-0.31,0.61
8800,0.20,0.98,-0.14,-1.28,0.49,-0.24
8820,0.19,0.99,-0.13,-2.56,0.85,-0.85
8840,0.20,0.99,-0.12,-2.44,1.04,-1.34
8860,0.19,1.00,-0.12,-2.26,1.22,-1.22
8880,0.18,1.00,-0.12,-1.65,0.92,-0.79
8900,0.20,0.99,-0.12,-1.28,0.00,0.31
8920,0.20,0.99,-0.12,-1.53,0.18,0.12
8940,0.20,0.99,-0.12,-1.16,0.73,-0.31
8960,0.19,0.99,-0.12,-0.98,1.28,-0.61
8980,0.18,1.00,-0.12,-0.55,0.85,-0.31
9000,0.19,0.99,-0.13,-0.12,-0.12,1.10
9020,0.19,1.00,-0.12,-0.98,-0.18,1.59
9040,0.17,1.00,-0.12,-1.53,-0.55,2.08
9060,0.16,1.01,-0.11,-4.52,-4.09,6.35
9080,0.17,1.02,-0.10,-7.57,-6.71,11.66
9100,0.18,1.02,-0.13,-10.62,-6.59,15.63
9120,0.13,1.13,-0.09,-12.82,-10.50,25.70
9140,0.13,1.20,-0.16,-10.56,-15.20,37.41
9160,0.19,1.31,-0.18,-6.71,-21.00,47.00
9180,0.30,1.12,-0.21,-1.65,-17.88,61.04
9200,0.26,1.06,-0.26,-10.99,-14.16,62.74
9220,0.27,1.06,-0.22,-22.89,-16.36,63.90
9240,0.27,1.03,-0.13,-32.71,-20.08,67.81
9260,0.31,1.00,-0.01,-34.73,-19.17,69.76
9280,0.35,0.94,0.03,-34.79,-18.19,74.22
9300,0.40,0.89,0.03,-32.78,-11.96,69.40
9320,0.46,0.80,0.02,-31.31,-9.46,65.92
9340,0.50,0.70,-0.03,-31.19,-6.53,63.78
9360,0.56,0.68,0.01,-29.79,-11.96,53.41
9380,0.58,0.65,0.06,-23.93,-11.72,39.61
9400,0.61,0.61,0.08,-19.23,-9.28,28.93
9420,0.63,0.54,0.11,-13.79,-6.47,17.52
9440,0.70,0.51,0.13,-3.17,0.18,-4.70
9460,0.70,0.41,0.15,5.13,6.29,-25.94
9480,0.62,0.52,0.19,15.81,11.29,-49.93
9500,0.49,0.83,0.17,34.97,10.01,-69.89
9520,0.43,0.96,0.09,42.66,10.07,-71.53
9540,0.47,0.79,-0.04,42.97,10.44,-66.65
9560,0.43,0.75,-0.22,26.18,23.13,-79.28
9580,0.32,0.76,-0.02,22.77,19.35,-89.78
9600,0.12,1.20,-0.08,23.74,22.71,-89.17
9620,0.07,1.47,0.09,33.02,4.15,-53.59
9640,0.28,1.11,-0.13,33.45,16.97,-34.67
9660,0.35,1.01,-0.27,26.25,22.34,-33.02
9680,0.47,0.78,-0.30,7.02,34.79,-48.95
9700,0.26,1.00,-0.54,-4.94,54.81,-75.99
9720,-0.27,1.68,0.09,5.37,40.16,-74.28
9740,0.01,1.34,0.13,18.25,-3.36,-2.01
9760,0.26,0.94,-0.17,1.65,1.22,1.16
9780,0.21,0.96,-0.18,-1.28,6.77,-3.78
9800,0.23,0.97,-0.14,-2.75,4.64,-7.51
9820,0.21,0.99,-0.13,-1.83,4.46,-10.74
9840,0.19,1.00,-0.11,-0.24,2.32,-11.90
9860,0.20,1.00,-0.10,1.89,2.69,-9.58
9880,0.18,0.99,-0.14,3.05,4.39,-6.47
9900,0.18,1.01,-0.10,1.22,2.99,-5.07
9920,0.19,1.00,-0.12,4.94,3.85,-1.28
9940,0.19,0.99,-0.14,2.38,2.81,-0.79
9960,0.19,0.99,-0.13,1.34,1.89,-1.40
9980,0.19,1.00,-0.12,1.59,1.83,-1.53
10000,0.20,0.99,-0.14,1.83,1.95,-1.83
10020,0.19,0.99,-0.14,0.49,1.89,-2.20
10040,0.19,0.99,-0.13,-0.31,1.28,-2.38
10060,0.19,0.99,-0.14,-0.43,1.04,-2.14
10080,0.19,0.99,-0.13,-0.43,0.79,-1.83
10100,0.19,0.99,-0.13,0.00,0.79,-1.71
10120,0.19,0.99,-0.14,-0.06,0.73,-1.04
10140,0.19,0.99,-0.14,-0.31,0.67,-0.73
10160,0.19,0.99,-0.14,0.06,0.92,-0.31
10180,0.19,1.00,-0.14,-0.06,1.04,0.31
10200,0.19,0.99,-0.14,0.49,1.16,0.79
10220,0.19,0.99,-0.14,0.55,1.53,1.04
10240,0.19,0.99,-0.14,0.00,1.71,1.16
10260,0.19,0.99,-0.14,-0.24,1.89,1.46
10280,0.15,1.00,-0.12,-0.61,1.46,1.89
10300,0.15,1.00,-0.13,-0.67,-1.89,6.53
10320,0.13,1.03,-0.14,-7.57,-8.67,12.94
10340,0.13,1.08,-0.10,-15.38,-15.75,20.14
10360,0.15,1.16,-0.12,-22.46,-20.94,30.03
10380,0.13,1.29,-0.13,-10.07,-22.95,44.86
10400,0.24,1.22,-0.19,-0.73,-23.93,59.27
10420,0.39,1.01,-0.18,-1.65,-14.95,64.39
10440,0.26,1.02,-0.36,-18.68,-13.79,64.70
10460,0.27,1.02,-0.27,-31.98,-18.92,65.49
10480,0.29,1.04,-0.14,-40.04,-25.27,67.20
10500,0.31,1.00,-0.04,-44.37,-26.43,71.96
10520,0.36,0.95,0.03,-43.58,-21.42,73.30
10540,0.41,0.91,0.03,-44.07,-16.17,73.61
10560,0.44,0.81,0.03,-41.08,-10.56,75.56
10580,0.53,0.69,0.05,-39.37,-14.59,65.86
10600,0.60,0.60,0.08,-34.42,-12.94,58.35
10620,0.65,0.51,0.11,-30.27,-12.88,46.57
10640,0.68,0.40,0.15,-15.08,-6.29,18.55
10660,0.70,0.42,0.18,-5.98,-1.22,-1.65
10680,0.66,0.49,0.25,5.00,3.05,-22.40
10700,0.61,0.59,0.23,22.71,10.31,-48.28
10720,0.58,0.62,0.13,32.53,11.66,-63.17
10740,0.53,0.70,-0.05,35.46,15.50,-74.04
10760,0.42,0.95,-0.15,31.56,12.63,-78.55
10780,0.43,0.90,-0.05,23.62,5.86,-72.51
10800,0.42,0.82,0.09,23.80,7.45,-77.45
10820,0.19,1.11,0.07,27.59,16.36,-79.47
10840,0.22,1.22,0.00,28.20,14.77,-67.26
10860,0.22,1.18,-0.10,29.48,18.98,-54.14
10880,0.37,0.88,-0.08,26.79,25.70,-51.76
10900,0.57,0.77,-0.17,21.61,40.10,-73.24
10920,-0.32,1.79,-1.04,17.03,78.19,-94.79
10940,-0.25,1.69,0.04,22.77,3.05,-28.50
10960,0.23,1.02,-0.08,4.82,2.32,0.67
10980,0.27,0.95,-0.12,0.00,1.77,-1.28
11000,0.27,0.95,-0.14,-0.98,3.72,-10.25
11020,0.23,0.98,-0.14,0.92,7.39,-14.53
11040,0.20,1.00,-0.13,0.67,6.04,-15.87
11060,0.19,1.00,-0.13,0.12,4.09,-14.40
11080,0.17,1.00,-0.12,-1.95,1.34,-11.60
11100,0.17,0.99,-0.12,-4.03,1.04,-9.83
11120,0.17,1.00,-0.10,-5.62,-0.49,-9.16
11140,0.17,1.01,-0.09,-4.46,-1.28,-6.65
11160,0.17,1.00,-0.09,-3.23,-1.28,-4.76
11180,0.18,1.00,-0.10,-1.28,-1.28,-3.48
11200,0.18,1.00,-0.12,-0.73,-0.79,-1.46
11220,0.19,0.99,-0.12,-1.34,-0.79,-0.73
11240,0.18,0.99,-0.11,-1.95,-0.43,-0.92
11260,0.18,1.00,-0.10,-1.53,0.00,-0.61
11280,0.18,1.00,-0.11,-0.12,0.67,-0.06
11300,0.18,1.00,-0.11,0.67,0.73,0.31
11320,0.18,1.00,-0.11,1.40,1.46,0.61
11340,0.18,1.00,-0.11,1.40,1.46,0.67
11360,0.18,1.00,-0.11,1.53,1.53,0.55
11380,0.19,0.99,-0.12,1.89,1.59,0.85
11400,0.19,0.99,-0.12,2.08,2.08,1.04
11420,0.19,0.99,-0.12,1.77,2.26,0.73
11440,0.18,0.99,-0.12,1.34,2.50,0.61
11460,0.17,0.99,-0.12,0.06,2.93,0.43
11480,0.11,1.01,-0.09,0.00,0.67,2.38
11500,0.15,1.00,-0.12,-1.83,-4.09,9.40
11520,0.22,0.98,-0.15,-12.15,-7.39,11.72
11540,0.19,1.00,-0.10,-14.59,-7.08,9.46
11560,0.15,1.04,-0.06,-14.10,-6.29,11.54
11580,0.14,1.11,-0.08,-15.01,-9.89,25.88
11600,0.16,1.18,-0.12,-15.14,-13.24,36.74
11620,0.23,1.15,-0.15,-10.38,-17.94,45.47
11640,0.33,1.06,-0.16,-8.24,-12.27,51.39
11660,0.26,1.10,-0.22,-14.34,-8.18,52.67
11680,0.25,1.13,-0.16,-21.61,-12.39,54.69
11700,0.25,1.09,-0.09,-27.34,-15.44,61.46
11720,0.28,1.02,-0.07,-30.76,-16.54,66.89
11740,0.28,1.06,-0.04,-34.24,-15.08,70.19
11760,0.35,0.94,0.01,-36.99,-11.78,73.67
11780,0.42,0.86,0.02,-37.78,-9.58,76.11
11800,0.47,0.75,0.06,-37.41,-7.20,74.28
11820,0.52,0.65,0.02,-35.64,-7.14,61.52
11840,0.59,0.58,0.10,-29.11,-6.77,48.95
11860,0.62,0.57,0.10,-23.19,-6.41,37.41
11880,0.65,0.54,0.14,-14.10,-4.58,23.01
11900,0.69,0.49,0.21,0.43,0.92,-3.11
11920,0.68,0.49,0.24,11.41,4.94,-23.93
11940,0.62,0.54,0.19,24.11,9.58,-44.31
11960,0.50,0.68,0.07,36.74,12.27,-66.65
11980,0.46,0.87,-0.03,36.68,11.05,-72.39
12000,0.43,0.94,-0.11,34.61,10.50,-71.90
12020,0.45,0.90,0.01,29.30,8.18,-68.54
12040,0.44,0.63,0.11,31.56,12.08,-71.59
12060,0.27,0.94,-0.15,29.24,20.39,-81.48
12080,0.14,1.38,-0.06,23.86,7.08,-63.54
12100,0.27,1.09,-0.11,22.03,10.25,-42.24
12120,0.39,0.81,-0.02,23.13,14.22,-40.47
12140,0.53,0.55,-0.07,19.71,40.89,-72.94
12160,0.02,1.58,-1.05,17.58,82.82,-107.60
12180,-0.54,1.89,0.26,49.32,29.85,-84.53
12200,-0.00,1.07,-0.31,7.02,-0.67,2.26
12220,0.22,1.02,-0.06,-8.12,-1.53,0.43
12240,0.23,0.99,-0.09,-2.26,3.05,0.98
12260,0.23,0.98,-0.12,2.44,7.51,-1.34
12280,0.20,0.98,-0.15,2.14,4.70,-6.47
12300,0.20,0.99,-0.14,1.22,1.77,-8.12
12320,0.19,0.98,-0.15,1.34,1.16,-8.30
12340,0.18,0.99,-0.15,-4.21,0.49,-8.30
12360,0.19,0.99,-0.13,-6.65,-0.49,-8.30
12380,0.17,1.01,-0.10,-6.16,-1.22,-8.00
12400,0.18,1.00,-0.10,-2.44,-1.46,-4.94
12420,0.17,1.00,-0.10,-0.06,-0.98,-3.72
12440,0.18,0.99,-0.13,1.22,-0.43,-2.50
12460,0.18,0.99,-0.14,0.06,-0.18,-0.73
12480,0.18,0.99,-0.13,-1.65,0.31,-0.79
12500,0.18,1.00,-0.12,-1.95,0.18,-0.79
12520,0.18,1.00,-0.11,0.06,0.18,-0.61
12540,0.18,1.00,-0.12,1.59,0.24,-0.18
12560,0.18,1.00,-0.13,2.01,0.37,0.00
12580,0.18,0.99,-0.13,1.16,0.79,0.37
12600,0.18,0.99,-0.13,0.61,0.79,0.73
12620,0.18,0.99,-0.13,0.24,0.98,0.55
12640,0.18,0.99,-0.13,0.61,0.79,0.73
12660,0.19,0.99,-0.13,0.85,0.85,0.92
12680,0.18,0.99,-0.13,0.98,1.40,0.92
12700,0.18,0.99,-0.13,0.67,2.08,1.34
12720,0.18,0.99,-0.13,0.37,2.38,1.95
12740,0.14,1.00,-0.12,0.12,1.53,3.42
12760,0.17,0.99,-0.14,-1.89,-1.10,7.45
12780,0.17,1.00,-0.13,-7.75,-4.09,8.91
12800,0.17,1.02,-0.12,-11.11,-7.39,11.72
12820,0.14,1.05,-0.10,-15.87,-9.70,15.93
12840,0.14,1.09,-0.10,-22.77,-15.26,23.93
12860,0.21,1.11,-0.14,-21.30,-18.68,30.88
12880,0.16,1.20,-0.17,-15.93,-19.84,37.05
12900,0.27,1.20,-0.18,-8.91,-21.00,55.42
12920,0.22,1.19,-0.23,-16.30,-14.34,61.16
12940,0.27,1.09,-0.20,-24.41,-17.76,66.47
12960,0.27,1.04,-0.14,-36.93,-16.42,68.79
12980,0.31,1.00,-0.04,-41.20,-19.71,73.00
13000,0.34,0.94,0.01,-43.46,-17.21,76.05
13020,0.39,0.83,0.05,-42.18,-12.88,75.20
13040,0.46,0.83,0.06,-39.00,-8.24,72.20
13060,0.48,0.79,0.09,-34.97,-6.84,68.36
13080,0.55,0.67,0.10,-30.88,-10.38,57.31
13100,0.61,0.59,0.09,-25.27,-6.35,46.33
13120,0.64,0.53,0.12,-18.80,-5.49,31.80
13140,0.67,0.51,0.14,-10.13,-3.48,14.83
13160,0.68,0.47,0.20,2.50,1.10,-12.21
13180,0.63,0.56,0.19,12.27,5.62,-33.20
13200,0.60,0.64,0.20,22.64,6.47,-49.56
13220,0.53,0.76,0.10,35.89,10.07,-65.67
13240,0.41,0.94,-0.05,39.79,13.98,-71.29
13260,0.50,0.79,-0.05,37.78,8.18,-66.71
13280,0.44,0.52,-0.06,28.69,13.43,-75.93
13300,0.28,0.94,-0.03,22.71,15.93,-89.48
13320,0.17,1.23,0.08,26.25,13.00,-85.75
13340,0.20,1.20,-0.04,31.01,14.22,-57.74
13360,0.35,0.94,-0.04,33.45,16.24,-48.28
13380,0.49,0.67,-0.14,31.56,29.30,-58.04
13400,0.60,0.88,-1.11,16.42,76.72,-101.68
13420,-0.56,1.99,0.07,43.52,25.45,-79.47
13440,0.10,1.05,-0.25,14.89,-1.65,-5.31
13460,0.25,0.97,-0.13,-8.97,-2.75,-0.79
13480,0.22,0.99,-0.08,-6.23,0.79,-3.48
13500,0.24,0.97,-0.11,-3.48,1.46,-5.19
13520,0.23,0.98,-0.12,-2.87,2.08,-10.19
13540,0.21,0.98,-0.12,-0.61,2.20,-12.15
13560,0.19,0.99,-0.12,-0.24,2.62,-12.76
13580,0.17,1.00,-0.12,-0.49,2.87,-12.33
13600,0.17,1.01,-0.08,-1.65,1.16,-10.01
13620,0.17,1.01,-0.09,-0.67,0.98,-7.57
13640,0.17,1.01,-0.09,0.61,0.92,-5.00
13660,0.17,1.00,-0.11,1.16,1.22,-1.83
13680,0.18,1.00,-0.11,0.85,0.06,-0.37
13700,0.19,0.99,-0.12,-0.49,-0.06,0.18
13720,0.18,0.99,-0.12,-1.89,0.55,-0.73
13740,0.18,1.00,-0.11,-1.95,0.85,-0.98
13760,0.18,1.00,-0.10,-1.40,0.85,-0.85
13780,0.18,1.00,-0.11,-0.37,0.79,-0.37
13800,0.18,1.00,-0.11,0.00,0.55,-0.06
13820,0.18,0.99,-0.11,0.00,0.55,0.12
13840,0.18,1.00,-0.11,-0.12,0.79,0.06
13860,0.18,1.00,-0.11,0.00,0.67,-0.31
13880,0.18,1.00,-0.11,0.00,0.24,0.12
13900,0.18,1.00,-0.11,0.31,0.61,0.49
13920,0.18,1.00,-0.11,0.43,0.73,0.61
13940,0.17,1.00,-0.11,0.43,0.67,1.46
13960,0.16,1.00,-0.11,0.00,0.12,2.32
13980,0.15,1.02,-0.09,-0.98,-1.77,5.43
14000,0.17,1.00,-0.13,-3.30,-3.85,9.58
14020,0.16,1.02,-0.10,-7.14,-5.31,12.63
14040,0.18,1.03,-0.09,-10.19,-5.31,16.85
14060,0.18,1.05,-0.11,-9.46,-6.04,20.39
14080,0.18,1.05,-0.10,-10.25,-6.59,25.15
14100,0.23,1.06,-0.14,-7.75,-11.47,33.02
14120,0.23,1.13,-0.16,-6.53,-9.52,34.97
14140,0.25,1.12,-0.15,-6.90,-11.11,39.92
14160,0.21,1.16,-0.18,-14.04,-6.59,45.53
14180,0.25,1.11,-0.15,-18.86,-11.78,52.80
14200,0.25,1.10,-0.11,-23.62,-12.27,57.25
14220,0.29,1.00,-0.09,-27.28,-14.40,63.72
14240,0.33,0.96,-0.04,-30.27,-13.85,66.22
14260,0.34,0.95,-0.02,-32.71,-10.99,68.24
14280,0.41,0.86,0.00,-33.08,-8.18,67.14
14300,0.48,0.73,0.04,-32.41,-7.87,63.48
14320,0.50,0.75,0.05,-29.30,-3.11,55.48
14340,0.57,0.67,0.08,-27.22,-10.19,42.36
14360,0.59,0.63,0.10,-19.29,-6.23,32.90
14380,0.59,0.68,0.10,-13.92,-3.42,19.96
14400,0.61,0.65,0.12,-7.69,-1.71,8.67
14420,0.63,0.56,0.14,3.23,1.59,-11.23
14440,0.60,0.60,0.15,11.05,4.82,-28.63
14460,0.56,0.68,0.18,21.06,5.62,-43.58
14480,0.47,0.79,0.03,33.39,10.01,-59.33
14500,0.49,0.74,-0.07,35.16,6.84,-61.40
14520,0.50,0.78,-0.21,23.74,10.93,-65.25
14540,0.36,0.98,0.02,16.42,5.37,-71.78
14560,0.41,0.73,0.19,23.01,5.92,-69.03
14580,0.16,1.14,0.06,29.24,17.21,-73.43
14600,0.24,1.14,-0.16,28.20,14.40,-49.01
14620,0.26,1.15,-0.20,22.95,15.75,-43.21
14640,0.36,0.93,-0.14,18.19,14.40,-40.41
14660,0.48,0.75,-0.18,8.30,36.19,-66.59
14680,-0.04,1.47,-0.68,5.19,60.12,-88.01
14700,-0.42,1.59,0.19,35.28,21.67,-64.45
14720,0.11,1.02,-0.25,3.23,2.26,-0.98
14740,0.21,1.00,-0.09,-6.84,1.71,-5.43
14760,0.22,1.00,-0.07,-5.86,0.61,-5.86
14780,0.22,0.99,-0.10,-0.67,4.94,-5.86
14800,0.19,0.99,-0.12,1.28,5.07,-7.39
14820,0.19,1.00,-0.10,1.65,3.54,-7.69
14840,0.19,0.99,-0.12,3.85,3.60,-6.04
14860,0.18,1.00,-0.12,0.98,2.81,-5.19
14880,0.18,1.00,-0.12,0.00,1.71,-4.15
14900,0.18,1.00,-0.11,-1.04,0.92,-3.17
14920,0.18,1.00,-0.11,-0.18,0.49,-2.20
14940,0.18,1.00,-0.11,0.37,0.67,-1.59
14960,0.19,0.99,-0.12,1.53,0.92,-1.28
14980,0.19,0.99,-0.13,1.34,1.22,-1.89
15000,0.18,0.99,-0.12,0.00,0.98,-2.32
15020,0.19,0.99,-0.12,-0.67,0.61,-2.50
15040,0.18,1.00,-0.11,-0.49,0.49,-2.50
15060,0.18,1.00,-0.12,0.06,0.49,-2.08
15080,0.18,1.00,-0.12,0.37,0.79,-1.65
15100,0.18,1.00,-0.12,0.55,1.04,-0.61
15120,0.18,0.99,-0.12,0.31,1.10,-0.12
15140,0.18,0.99,-0.12,-0.18,0.98,0.43
15160,0.18,1.00,-0.12,15.50,1.04,0.73
15180,0.19,0.99,-0.13,0.61,1.16,0.92
15200,0.18,0.99,-0.12,0.67,1.22,0.98
15220,0.18,0.99,-0.13,0.67,1.53,1.16
15240,0.18,0.99,-0.12,-0.61,1.65,1.34
15260,0.16,1.00,-0.11,-1.83,1.34,1.77
15280,0.18,0.99,-0.13,-2.38,-1.04,3.78
15300,0.18,1.00,-0.13,-5.19,-2.93,3.85
15320,0.20,0.99,-0.13,-6.65,-4.64,3.97
15340,0.16,1.01,-0.11,-8.67,-5.00,4.88
15360,0.15,1.05,-0.07,-11.17,-8.79,12.08
15380,0.19,1.02,-0.11,-12.39,-9.22,18.31
15400,0.20,1.06,-0.09,-13.31,-10.50,21.79
15420,0.18,1.12,-0.14,-9.95,-8.97,29.11
15440,0.20,1.13,-0.15,-5.13,-12.70,36.13
15460,0.22,1.15,-0.16,-4.09,-12.63,42.24
15480,0.29,1.13,-0.22,-10.80,-8.36,50.54
15500,0.25,1.12,-0.19,-16.66,-10.31,54.75
15520,0.26,1.07,-0.17,-23.74,-12.21,58.59
15540,0.26,1.08,-0.12,-30.33,-16.30,65.00
15560,0.33,0.96,-0.04,-33.14,-15.56,66.77
15580,0.34,0.93,0.00,-35.03,-13.31,66.96
15600,0.42,0.84,0.03,-34.42,-10.80,65.98
15620,0.47,0.74,0.03,-31.98,-6.71,60.06
15640,0.51,0.75,0.11,-28.32,-5.13,53.41
15660,0.56,0.69,0.13,-23.01,-9.58,44.86
15680,0.57,0.68,0.10,-15.14,-4.88,31.74
15700,0.57,0.68,0.11,-8.61,-3.97,20.94
15720,0.57,0.72,0.10,-2.69,-2.26,11.29
15740,0.59,0.73,0.05,2.69,-0.31,0.79
15760,0.60,0.65,0.06,4.82,2.01,-9.22
15780,0.59,0.64,0.06,8.30,5.25,-22.09
15800,0.55,0.73,0.14,17.64,6.35,-38.88
15820,0.48,0.78,0.09,23.19,10.50,-47.00
15840,0.45,0.90,0.03,29.11,8.24,-49.87
15860,0.46,0.85,-0.06,28.44,9.40,-47.85
15880,0.50,0.74,-0.08,23.68,10.93,-52.19
15900,0.45,0.76,-0.04,21.36,14.59,-62.38
15920,0.32,0.88,0.03,21.61,11.66,-67.08
15940,0.23,1.15,-0.06,21.55,12.27,-59.94
15960,0.33,0.99,-0.06,21.55,11.35,-51.45
15980,0.35,0.89,-0.09,18.62,21.30,-55.36
16000,0.45,0.78,-0.22,14.34,30.52,-66.28
16020,0.17,1.41,-0.39,6.96,45.90,-76.66
16040,0.07,1.42,0.01,4.27,23.32,-32.65
16060,0.17,1.08,-0.12,14.40,10.80,-10.93
16080,0.26,0.97,-0.14,7.81,11.05,-7.87
16100,0.23,0.99,-0.12,4.33,13.98,-11.90
16120,0.21,0.99,-0.13,4.94,13.12,-12.76
16140,0.21,0.98,-0.14,4.09,10.01,-13.43
16160,0.19,0.98,-0.14,1.53,6.16,-14.40
16180,0.18,1.00,-0.13,-2.08,1.40,-14.04
16200,0.18,1.01,-0.12,-2.69,0.37,-11.60
16220,0.19,1.04,-0.08,-2.99,0.18,-8.30
16240,0.17,1.00,-0.11,-0.24,-0.18,-3.36
16260,0.18,1.00,-0.11,1.83,0.67,-1.40
16280,0.19,0.99,-0.13,1.95,2.44,0.24
16300,0.20,0.99,-0.14,2.50,0.98,0.12
16320,0.20,0.98,-0.14,3.11,1.04,0.55
16340,0.20,0.99,-0.14,1.83,1.46,-0.37
16360,0.20,0.99,-0.14,-0.67,1.65,-1.95
16380,0.18,1.00,-0.12,-1.95,1.28,-2.08
16400,0.19,1.00,-0.12,-1.65,0.92,-1.59
16420,0.19,0.99,-0.13,-1.65,1.04,-1.10
16440,0.19,0.99,-0.13,-1.16,1.04,-1.10
16460,0.19,0.99,-0.13,-0.98,1.10,-0.73
16480,0.19,0.99,-0.13,-0.61,0.85,-0.49
16500,0.19,0.99,-0.14,-0.98,0.85,-0.61
16520,0.19,0.99,-0.13,-1.65,1.04,-0.37
16540,0.19,0.99,-0.13,-1.77,1.28,-0.43
16560,0.19,0.99,-0.13,-2.50,1.16,-0.43
16580,0.19,0.99,-0.13,-1.83,1.16,-0.43
16600,0.19,0.99,-0.13,-2.08,0.79,-0.18
16620,0.17,1.00,-0.12,-3.23,0.18,0.00
16640,0.16,1.00,-0.12,-3.66,-1.46,1.83
16660,0.20,0.99,-0.13,-5.31,-4.03,3.23
16680,0.19,0.98,-0.14,-6.71,-5.37,3.36
16700,0.16,1.01,-0.11,-9.22,-7.51,5.00
16720,0.16,1.04,-0.08,-10.25,-9.77,9.70
16740,0.16,1.07,-0.08,-12.76,-13.06,21.06
16760,0.18,1.09,-0.09,-8.79,-12.70,27.47
16780,0.18,1.12,-0.15,-4.82,-13.98,33.75
16800,0.24,1.11,-0.18,-2.87,-15.01,40.77
16820,0.24,1.17,-0.16,-4.52,-14.95,45.96
16840,0.23,1.17,-0.23,-11.41,-10.80,52.19
16860,0.27,1.06,-0.19,-17.70,-14.10,58.17
16880,0.27,1.07,-0.14,-27.22,-15.63,61.71
16900,0.31,0.99,-0.08,-31.74,-17.03,65.25
16920,0.33,0.98,-0.05,-34.85,-16.60,66.65
16940,0.38,0.88,0.01,-36.80,-14.28,67.63
16960,0.45,0.80,0.02,-36.38,-11.47,66.28
16980,0.48,0.75,0.03,-34.79,-8.18,60.00
17000,0.56,0.69,0.10,-30.82,-11.47,48.77
17020,0.56,0.63,0.06,-27.71,-6.04,40.22
17040,0.59,0.64,0.09,-22.71,-5.92,28.87
17060,0.61,0.62,0.12,-13.79,-1.77,10.86
17080,0.61,0.66,0.13,-6.59,0.73,-1.46
17100,0.60,0.68,0.19,2.01,2.32,-13.31
17120,0.56,0.77,0.16,16.54,6.53,-28.87
17140,0.53,0.82,0.15,26.31,6.53,-34.97
17160,0.55,0.74,0.11,32.90,8.36,-40.16
17180,0.56,0.59,-0.09,33.94,16.78,-56.34
17200,0.45,0.83,-0.19,29.97,19.04,-66.59
17220,0.28,1.18,-0.01,30.40,9.22,-65.80
17240,0.40,0.95,0.06,31.56,7.63,-52.25
17260,0.44,0.61,0.01,32.29,10.13,-57.80
17280,0.25,0.99,-0.22,26.61,29.30,-70.50
17300,0.25,1.15,-0.19,17.15,19.90,-62.87
17320,0.36,0.96,-0.06,13.79,15.63,-54.69
17340,0.45,0.73,-0.16,11.23,30.82,-64.27
17360,0.20,1.19,-0.77,4.21,58.59,-88.26
17380,-0.34,1.70,0.28,25.33,9.77,-57.43
17400,0.12,1.01,-0.26,6.59,7.02,0.49
17420,0.25,0.98,-0.08,-6.04,-2.26,-2.62
17440,0.24,0.97,-0.12,-4.21,4.64,-4.94
17460,0.22,0.98,-0.12,-3.17,5.92,-8.42
17480,0.20,0.99,-0.12,-2.26,4.88,-10.99
17500,0.18,0.99,-0.11,-0.79,1.22,-10.68
17520,0.18,1.01,-0.12,-0.92,0.73,-9.89
17540,0.18,1.00,-0.11,-1.65,4.03,-8.06
17560,0.17,1.00,-0.10,-2.01,0.49,-7.02
17580,0.17,1.01,-0.09,-1.46,0.67,-4.52
17600,0.17,1.00,-0.10,-0.61,0.43,-2.32
17620,0.18,1.00,-0.11,-0.24,-0.43,-0.55
17640,0.19,0.99,-0.12,-0.55,0.00,-0.49
17660,0.19,0.99,-0.12,-1.10,0.61,-0.73
17680,0.19,0.99,-0.12,-1.10,1.04,-1.04
17700,0.18,1.00,-0.11,-1.10,1.22,-1.34
17720,0.18,1.00,-0.11,-0.85,1.10,-1.34
17740,0.18,1.00,-0.11,-0.92,0.67,-0.67
17760,0.18,1.00,-0.11,-0.85,0.37,-0.31
17780,0.18,0.99,-0.12,-0.55,0.43,0.00
17800,0.18,0.99,-0.11,-0.73,0.85,-0.06
17820,0.18,1.00,-0.11,-0.06,0.92,-0.18
17840,0.18,1.00,-0.11,1.22,1.34,-0.12
17860,0.18,0.99,-0.11,1.53,1.65,0.37
17880,0.18,0.99,-0.12,1.59,2.26,0.37
17900,0.18,1.00,-0.12,1.59,1.83,0.31
17920,0.18,1.00,-0.12,0.73,2.14,0.43
17940,0.18,1.00,-0.12,-0.18,1.53,0.18
17960,0.18,1.00,-0.12,-0.24,1.28,0.73
17980,0.18,1.00,-0.11,-0.31,1.04,1.04
18000,0.18,1.00,-0.11,-0.55,0.18,1.89
18020,0.17,1.00,-0.11,-0.24,-1.10,3.17
18040,0.15,1.01,-0.11,-0.98,-1.95,6.04
18060,0.14,1.03,-0.09,-4.09,-6.84,16.42
18080,0.18,1.04,-0.11,-8.36,-9.40,24.23
18100,0.20,1.04,-0.12,-9.16,-9.83,28.50
18120,0.20,1.08,-0.12,-9.46,-10.68,35.16
18140,0.25,1.07,-0.14,-4.09,-13.67,39.06
18160,0.25,1.10,-0.15,-1.95,-14.16,40.22
18180,0.26,1.10,-0.17,-1.89,-13.31,43.52
18200,0.26,1.09,-0.23,-11.29,-10.93,46.63
18220,0.29,1.05,-0.17,-18.19,-15.14,50.11
18240,0.31,1.01,-0.14,-23.80,-14.89,52.06
18260,0.33,0.97,-0.06,-28.02,-15.26,52.67
18280,0.37,0.93,-0.04,-28.38,-14.53,52.31
18300,0.37,0.91,0.01,-27.04,-13.31,51.09
18320,0.44,0.83,0.04,-24.41,-9.77,48.28
18340,0.46,0.80,0.05,-21.42,-7.63,43.27
18360,0.48,0.78,0.04,-18.13,-4.52,37.54
18380,0.52,0.73,0.03,-13.37,-4.76,25.94
18400,0.51,0.80,0.05,-9.95,-4.27,19.90
18420,0.53,0.76,0.03,-7.57,-4.39,14.47
18440,0.52,0.81,-0.01,-6.10,-1.10,5.13
18460,0.53,0.80,-0.01,-6.41,-0.43,1.53
18480,0.54,0.74,-0.01,-5.98,1.04,-4.15
18500,0.57,0.69,0.08,-3.78,2.20,-19.23
18520,0.52,0.77,0.18,6.10,4.15,-30.27
18540,0.47,0.83,0.15,13.92,5.68,-36.93
18560,0.46,0.84,-0.02,19.35,8.67,-39.73
18580,0.45,0.89,-0.05,20.63,7.93,-44.25
18600,0.47,0.81,-0.10,18.92,9.34,-46.81
18620,0.49,0.58,-0.11,16.78,9.89,-55.36
18640,0.21,1.23,0.08,12.88,9.03,-72.14
18660,0.20,1.30,0.09,20.08,3.54,-53.16
18680,0.27,1.14,0.04,27.65,7.81,-34.36
18700,0.42,0.83,-0.13,27.77,16.78,-30.46
18720,0.43,0.59,-0.14,20.81,28.20,-45.17
18740,0.36,0.86,-0.18,13.98,33.81,-64.51
18760,-0.04,1.51,-0.54,5.13,39.43,-64.88
18780,0.00,1.38,-0.19,7.02,20.08,-47.06
18800,0.08,1.16,-0.18,12.76,13.55,-30.03
18820,0.12,1.11,-0.04,-4.21,6.47,-14.10
18840,0.21,1.02,-0.03,-4.70,3.17,-6.71
18860,0.21,1.00,-0.08,-1.53,1.65,-8.18
18880,0.20,0.98,-0.12,1.10,5.31,-7.93
18900,0.20,0.98,-0.14,0.31,0.73,-10.68
18920,0.18,0.99,-0.14,-1.95,0.31,-10.80
18940,0.21,1.00,-0.06,-4.09,2.87,-7.57
18960,0.17,1.00,-0.10,-4.70,-1.40,-6.41
18980,0.18,1.01,-0.09,-2.44,-1.16,-5.55
19000,0.17,1.01,-0.09,-0.67,0.49,-3.78
19020,0.17,1.00,-0.10,1.22,0.31,-1.22
19040,0.18,0.99,-0.12,0.79,0.12,0.06
19060,0.19,0.99,-0.12,-0.18,0.31,0.06
19080,0.19,0.99,-0.12,-0.06,0.92,-0.49
19100,0.19,1.00,-0.11,-0.12,1.28,-0.85
19120,0.18,1.00,-0.11,0.61,1.53,-0.67
19140,0.18,1.00,-0.11,0.67,1.40,-0.18
19160,0.19,1.00,-0.12,1.22,1.53,0.37
19180,0.18,0.99,-0.12,1.10,1.65,0.37
19200,0.19,0.99,-0.12,0.98,1.46,0.12
19220,0.18,0.99,-0.12,0.85,1.83,0.06
19240,0.18,1.00,-0.12,0.43,1.46,0.12
19260,0.18,1.00,-0.12,0.61,1.40,0.18
19280,0.18,1.00,-0.12,0.24,1.59,0.00
19300,0.18,0.99,-0.12,-0.37,1.65,0.18
19320,0.18,0.99,-0.13,-0.61,2.01,0.00
19340,0.17,0.99,-0.12,-0.92,1.71,0.18
19360,0.16,1.00,-0.11,-1.40,0.55,1.59
19380,0.18,0.99,-0.12,-2.14,-0.37,2.38
19400,0.20,0.99,-0.12,-4.58,-1.89,2.62
19420,0.19,1.00,-0.12,-4.94,-1.40,2.32
19440,0.18,1.00,-0.10,-4.58,-1.28,2.50
19460,0.09,1.06,-0.08,-4.64,-5.74,10.31
19480,0.18,1.03,-0.09,-10.07,-12.51,22.71
19500,0.22,1.02,-0.11,-11.66,-10.13,25.94
19520,0.23,1.02,-0.14,-8.36,-5.19,27.10
19540,0.18,1.09,-0.16,-6.29,-5.25,28.38
19560,0.18,1.11,-0.16,-4.21,-9.03,33.39
19580,0.25,1.14,-0.12,-1.34,-14.40,45.47
19600,0.28,1.10,-0.16,-2.32,-9.83,51.09
19620,0.28,1.07,-0.20,-8.12,-8.91,54.26
19640,0.31,1.05,-0.19,-19.78,-10.74,57.25
19660,0.30,1.03,-0.13,-25.70,-13.73,58.59
19680,0.31,1.01,-0.08,-29.36,-14.53,59.75
19700,0.36,0.94,-0.04,-32.96,-13.98,61.46
19720,0.39,0.90,0.01,-34.06,-12.15,63.48
19740,0.42,0.83,0.01,-34.12,-9.89,62.38
19760,0.52,0.74,0.05,-33.81,-4.94,54.93
19780,0.58,0.61,0.04,-31.13,-9.46,43.88
19800,0.59,0.59,0.07,-27.22,-3.48,32.10
19820,0.63,0.55,0.11,-20.02,-3.60,0.31
19840,0.66,0.49,0.17,-7.87,-0.98,-7.69
19860,0.63,0.52,0.18,0.98,3.91,-29.42
19880,0.57,0.65,0.21,13.61,5.92,-49.32
19900,0.46,0.81,0.17,32.53,6.10,-67.14
19920,0.42,0.79,0.03,39.67,5.68,-70.31
19940,0.45,0.67,-0.15,36.07,8.54,-71.35
19960,0.26,1.10,-0.20,22.95,15.08,-80.08
19980,0.29,1.07,0.03,20.32,5.62,-70.56
20000,0.26,0.98,0.06,23.80,11.60,-65.61
20020,0.25,1.03,0.01,31.86,14.71,-64.88
20040,0.38,1.00,-0.15,30.40,22.34,-60.55
20060,0.39,1.13,-0.50,24.29,44.37,-66.04
20080,0.33,1.32,-0.20,10.44,38.88,-65.73
20100,0.02,1.27,0.00,15.75,15.08,-36.93
20120,0.17,1.06,-0.03,0.00,10.13,-11.66
20140,0.17,1.04,-0.03,-0.61,1.34,-6.10
20160,0.19,1.00,-0.09,2.32,5.74,-4.82
20180,0.20,0.97,-0.15,3.66,4.64,-5.49
20200,0.19,0.98,-0.14,0.92,1.59,-6.96
20220,0.18,0.99,-0.13,-2.38,0.85,-6.47
20240,0.18,1.00,-0.10,-3.05,-0.49,-6.53
20260,0.19,1.00,-0.11,-1.83,-1.16,-6.04
20280,0.18,1.00,-0.10,-0.61,-0.31,-5.25
20300,0.18,1.00,-0.10,-0.06,0.18,-5.00
20320,0.17,1.00,-0.11,0.37,0.55,-4.82
20340,0.17,1.00,-0.11,0.06,0.92,-2.87
20360,0.17,1.00,-0.12,-0.24,0.98,-1.53
20380,0.18,1.00,-0.11,-0.61,0.67,-0.92
20400,0.18,1.00,-0.11,-0.49,0.98,-0.61
20420,0.18,1.00,-0.11,0.24,0.49,-0.85
20440,0.17,1.00,-0.11,0.85,0.49,-0.37
20460,0.18,1.00,-0.12,0.98,0.61,0.12
20480,0.18,1.00,-0.12,0.67,1.28,0.43
20500,0.18,1.00,-0.12,0.18,1.22,0.67
20520,0.18,1.00,-0.11,0.61,0.98,1.46
20540,0.18,1.00,-0.12,1.10,0.85,1.04
20560,0.18,0.99,-0.12,1.10,0.98,0.73
20580,0.18,0.99,-0.12,0.61,1.10,0.37
20600,0.18,0.99,-0.12,0.49,1.28,0.55
20620,0.18,0.99,-0.12,0.18,1.40,0.79
20640,0.18,1.00,-0.12,-0.24,1.77,1.46
20660,0.18,1.00,-0.12,0.12,2.14,1.71
20680,0.18,1.00,-0.12,0.55,2.08,1.71
20700,0.19,1.00,-0.12,1.04,2.38,1.89
20720,0.18,0.99,-0.12,1.34,2.69,1.77
20740,0.16,1.00,-0.11,0.92,2.20,2.01
20760,0.15,1.00,-0.12,0.18,0.12,4.39
20780,0.16,1.00,-0.13,-5.31,-4.70,8.97
20800,0.15,1.03,-0.11,-10.86,-10.44,13.37
20820,0.19,1.01,-0.12,-16.30,-13.49,17.21
20840,0.18,1.07,-0.10,-16.17,-13.37,19.23
20860,0.18,1.10,-0.10,-13.00,-15.20,25.63
20880,0.20,1.11,-0.12,-8.54,-17.21,33.14
20900,0.24,1.10,-0.16,-2.08,-15.14,39.12
20920,0.27,1.11,-0.14,-3.42,-14.95,44.74
20940,0.26,1.14,-0.20,-9.40,-10.50,49.80
20960,0.26,1.13,-0.19,-20.39,-12.94,58.23
20980,0.28,1.07,-0.16,-26.86,-12.45,61.71
21000,0.29,1.05,-0.07,-31.74,-14.89,64.39
21020,0.32,0.98,-0.00,-32.17,-16.24,69.58
21040,0.39,0.85,0.03,-31.56,-13.73,70.25
21060,0.45,0.77,0.04,-30.33,-10.86,65.80
21080,0.52,0.67,0.07,-28.02,-7.02,56.82
21100,0.58,0.58,0.07,-23.56,-4.82,37.35
21120,0.56,0.62,-0.00,-21.30,0.61,23.80
21140,0.58,0.63,0.06,-16.97,-2.81,13.37
21160,0.55,0.75,0.09,-8.42,-1.83,-1.95
21180,0.55,0.76,0.09,-3.36,-0.98,-9.16
21200,0.55,0.75,0.09,1.10,0.55,-17.52
21220,0.52,0.79,0.12,9.95,4.64,-30.58
21240,0.49,0.84,0.10,17.40,4.21,-36.07
21260,0.46,0.85,0.08,23.62,4.58,-39.31
21280,0.46,0.78,-0.04,26.18,7.93,-42.72
21300,0.48,0.83,-0.10,21.24,11.60,-48.46
21320,0.41,0.92,-0.04,19.10,9.95,-53.34
21340,0.37,0.93,0.04,18.62,11.11,-55.30
21360,0.31,0.94,0.07,23.07,9.58,-56.70
21380,0.31,0.97,-0.04,24.90,14.83,-54.75
21400,0.30,1.00,-0.12,21.24,17.27,-56.52
21420,0.36,0.85,-0.07,19.59,17.15,-55.85
21440,0.47,0.74,-0.09,17.15,27.53,-67.63
21460,0.33,1.24,-0.39,13.12,61.89,-90.52
21480,-0.25,1.64,-0.07,34.30,16.72,-57.31
21500,0.06,1.03,-0.27,11.05,5.49,-11.78
21520,0.19,0.98,-0.17,-7.02,-0.92,-6.35
21540,0.19,1.03,-0.03,-5.86,3.48,-8.97
21560,0.18,1.00,-0.09,-1.28,7.20,-6.41
21580,0.18,0.99,-0.12,1.04,3.85,-6.41
21600,0.20,0.99,-0.10,0.31,1.34,-6.90
21620,0.19,0.99,-0.12,-1.59,1.28,-6.35
21640,0.17,1.00,-0.11,-3.17,1.34,-6.53
21660,0.18,1.00,-0.10,-4.03,-0.37,-5.37
21680,0.17,1.00,-0.10,-3.48,0.49,-4.33
21700,0.17,1.00,-0.10,-2.26,-0.06,-3.85
21720,0.17,1.00,-0.10,-1.89,-0.49,-3.23
21740,0.17,1.00,-0.10,-1.40,0.31,-2.50
21760,0.18,1.00,-0.11,-1.34,0.61,-1.89
21780,0.18,1.00,-0.11,-1.28,0.79,-1.95
21800,0.18,1.00,-0.10,-1.65,1.04,-2.08
21820,0.17,1.00,-0.10,-1.34,1.04,-2.14
21840,0.17,1.00,-0.10,-0.31,0.55,-1.40
21860,0.17,1.00,-0.10,-0.24,0.55,-0.67
21880,0.18,1.00,-0.11,-0.31,0.55,-0.06
21900,0.17,1.00,-0.11,-0.37,0.67,0.00
21920,0.18,1.00,-0.11,-0.43,0.43,-0.12
21940,0.17,1.00,-0.11,-0.31,0.67,-0.12
21960,0.17,1.00,-0.10,-0.12,0.61,0.06
21980,0.17,1.00,-0.11,-0.37,0.73,-0.18
22000,0.18,1.00,-0.11,-0.12,0.67,-0.12
22020,0.17,1.00,-0.11,-0.06,1.04,-0.18
22040,0.17,1.00,-0.11,0.06,1.04,-0.06
22060,0.17,1.00,-0.11,0.24,1.22,0.06
22080,0.18,1.00,-0.11,0.55,1.22,0.43
22100,0.18,1.00,-0.11,0.98,1.40,0.55
22120,0.18,1.00,-0.11,0.98,1.53,0.55
22140,0.17,1.00,-0.11,1.16,1.89,0.24
22160,0.18,1.00,-0.11,1.16,1.89,0.37
22180,0.16,1.00,-0.10,0.73,1.46,0.79
22200,0.15,1.01,-0.09,1.53,0.18,2.26
22220,0.15,1.01,-0.10,1.53,-1.53,7.14
22240,0.15,1.03,-0.09,1.16,-2.38,9.28
22260,0.20,1.00,-0.13,-0.12,-3.36,12.45
22280,0.18,1.02,-0.11,-0.73,-2.26,13.31
22300,0.17,1.03,-0.12,-0.67,-2.44,17.09
22320,0.19,1.03,-0.13,-3.05,-4.21,22.83
22340,0.19,1.06,-0.13,-3.91,-4.88,26.73
22360,0.21,1.07,-0.12,0.85,-8.85,34.48
22380,0.24,1.08,-0.20,0.79,-9.03,37.84
22400,0.22,1.10,-0.19,-0.73,-10.86,40.28
22420,0.26,1.12,-0.20,-9.70,-9.34,47.61
22440,0.27,1.06,-0.19,-13.73,-10.44,51.15
22460,0.27,1.04,-0.20,-21.48,-11.78,53.83
22480,0.31,1.00,-0.14,-31.01,-14.89,55.73
22500,0.35,0.92,-0.10,-34.79,-15.26,56.64
22520,0.35,0.95,-0.04,-37.66,-13.24,55.66
22540,0.42,0.86,0.00,-37.11,-10.56,56.95
22560,0.47,0.78,0.05,-34.00,-9.09,54.02
22580,0.48,0.72,0.04,-31.01,-2.62,49.19
22600,0.51,0.79,0.01,-25.94,-0.85,36.01
22620,0.55,0.71,0.05,-20.94,-3.66,33.26
22640,0.57,0.68,0.07,-16.72,-2.14,22.16
22660,0.62,0.66,0.08,-6.84,0.61,3.30
22680,0.66,0.49,0.23,2.75,0.55,-13.18
22700,0.55,0.66,0.21,13.49,7.26,-33.75
22720,0.49,0.79,0.17,25.82,6.04,-48.03
22740,0.46,0.82,-0.01,36.68,9.09,-52.43
22760,0.49,0.68,-0.14,35.71,10.01,-55.54
22780,0.50,0.70,-0.26,24.05,13.49,-63.78
22800,0.34,0.89,-0.03,13.43,7.57,-76.11
22820,0.25,1.07,0.04,12.82,5.86,-76.60
22840,0.16,1.21,0.11,19.41,5.68,-67.02
22860,0.30,1.00,-0.04,29.91,18.43,-53.65
22880,0.47,0.81,-0.11,29.66,26.61,-59.27
22900,0.46,0.86,-0.40,23.44,52.73,-79.71
22920,-0.42,1.79,-0.23,15.87,50.23,-93.38
22940,-0.11,1.37,0.10,18.62,-4.82,-39.12
22960,0.17,1.02,-0.09,-4.21,-5.55,1.28
22980,0.22,0.99,-0.08,-1.46,2.56,1.71
23000,0.20,0.98,-0.12,2.69,5.86,-0.18
23020,0.21,0.98,-0.13,4.39,3.30,-1.77
23040,0.18,0.99,-0.14,2.50,2.26,-2.38
23060,0.19,0.99,-0.13,2.81,1.40,-1.83
23080,0.20,0.98,-0.15,3.23,1.83,-2.32
23100,0.18,1.00,-0.12,0.61,1.40,-3.91
23120,0.18,1.00,-0.12,0.31,0.31,-2.87
23140,0.18,1.00,-0.12,1.22,0.31,-1.89
23160,0.18,1.00,-0.13,1.77,-0.43,-0.73
23180,0.19,0.99,-0.14,1.89,0.79,-0.18
23200,0.19,0.99,-0.15,0.98,0.24,-1.34
23220,0.18,0.99,-0.14,0.06,0.12,-1.89
23240,0.19,0.99,-0.14,-1.34,-0.31,-2.08
23260,0.18,1.00,-0.13,-1.40,-0.24,-2.38
23280,0.18,1.00,-0.13,-1.04,-0.18,-2.26
23300,0.18,0.99,-0.14,-0.49,-0.61,-1.77
23320,0.17,1.00,-0.13,-0.43,0.24,-1.59
23340,0.18,0.99,-0.14,-0.92,0.73,-0.79
23360,0.18,1.00,-0.13,-1.59,0.61,-0.37
23380,0.18,0.99,-0.13,-1.77,0.24,-0.49
23400,0.19,0.99,-0.14,-1.71,0.24,-0.49
23420,0.18,0.99,-0.13,-1.16,0.24,-0.73
23440,0.18,0.99,-0.14,-1.22,0.31,-1.10
23460,0.18,1.00,-0.13,-1.16,0.43,-0.92
23480,0.18,0.99,-0.14,-1.46,0.73,-0.12
23500,0.18,0.99,-0.13,-1.71,1.10,0.49
23520,0.18,1.00,-0.13,-1.10,1.40,0.67
23540,0.18,0.99,-0.13,-0.73,1.46,0.92
23560,0.19,0.99,-0.14,-0.12,1.65,1.16
23580,0.18,0.99,-0.13,-0.43,1.53,0.92
23600,0.18,0.99,-0.13,-0.43,1.89,1.28
23620,0.18,0.99,-0.13,-1.10,2.26,1.59
23640,0.18,0.99,-0.14,-1.34,2.14,1.95
23660,0.17,0.99,-0.14,-2.50,1.28,2.50
23680,0.18,0.99,-0.14,-5.62,-1.53,3.91
23700,0.18,1.00,-0.12,-7.81,-2.99,3.85
23720,0.18,1.00,-0.12,-8.67,-4.27,5.25
23740,0.16,1.02,-0.12,-12.70,-9.16,9.64
23760,0.15,1.04,-0.09,-17.70,-12.94,14.95
23780,0.19,1.04,-0.13,-20.57,-13.92,19.47
23800,0.17,1.12,-0.11,-16.24,-14.40,24.72
23820,0.19,1.17,-0.12,-13.00,-18.49,33.45
23840,0.25,1.17,-0.14,-8.42,-19.65,41.14
23860,0.23,1.20,-0.16,-9.52,-16.78,52.49
23880,0.26,1.10,-0.18,-16.17,-12.76,57.98
23900,0.26,1.09,-0.17,-23.74,-13.18,61.89
23920,0.30,1.01,-0.12,-31.86,-14.10,65.67
23940,0.34,0.94,-0.04,-34.85,-14.89,65.12
23960,0.35,0.91,-0.00,-35.28,-12.94,65.49
23980,0.40,0.87,0.06,-34.97,-11.47,63.17
24000,0.48,0.73,0.06,-31.43,-6.47,58.90
24020,0.49,0.75,0.08,-26.98,-3.36,50.54
24040,0.56,0.69,0.10,-22.77,-8.73,40.22
24060,0.57,0.67,0.11,-13.85,-3.97,26.67
24080,0.54,0.73,0.12,-8.42,-2.69,14.65
24100,0.55,0.78,0.10,-3.78,-2.01,7.57
24120,0.55,0.81,0.05,0.73,-0.24,0.49
24140,0.55,0.77,0.07,2.75,1.46,-5.19
24160,0.53,0.80,0.10,5.68,2.62,-11.84
24180,0.49,0.92,0.06,10.50,2.50,-14.16
24200,0.48,0.93,0.04,11.17,3.23,-12.57
24220,0.49,0.91,0.01,11.11,4.03,-11.23
24240,0.52,0.81,0.01,9.64,5.74,-14.40
24260,0.55,0.73,0.05,9.64,7.14,-21.24
24280,0.53,0.71,0.01,10.93,11.05,-30.94
24300,0.46,0.79,-0.06,11.47,9.46,-38.51
24320,0.43,0.94,-0.05,9.52,7.08,-40.22
24340,0.45,0.89,-0.01,10.62,2.69,-39.98
24360,0.49,0.84,0.04,11.17,6.47,-52.55
24380,0.45,0.57,0.34,22.89,8.79,-65.06
24400,0.22,1.05,-0.02,29.85,24.96,-75.07
24420,0.19,1.27,-0.06,36.25,18.19,-47.00
24440,0.30,1.06,-0.15,37.84,21.30,-39.86
24460,0.42,0.79,-0.16,31.62,25.94,-41.93
24480,0.53,0.69,-0.20,21.55,37.23,-62.26
24500,-0.04,1.48,-0.26,5.62,54.57,-79.10
24520,-0.11,1.57,0.21,16.85,2.32,-36.32
24540,0.20,1.03,-0.15,9.77,-2.38,2.87
24560,0.28,0.92,-0.17,-2.56,-1.04,-0.24
24580,0.26,0.95,-0.16,-4.76,5.19,-6.53
24600,0.23,0.97,-0.14,-5.55,5.98,-11.29
24620,0.21,0.98,-0.13,-3.17,4.94,-16.24
24640,0.16,1.02,-0.10,-0.73,2.14,-16.72
24660,0.17,1.01,-0.12,-0.55,-0.79,-11.60
24680,0.20,0.99,-0.12,-3.66,-1.16,-7.45
24700,0.18,1.00,-0.11,-2.81,-0.67,-7.02
24720,0.18,1.01,-0.10,-1.28,-0.37,-4.58
24740,0.19,1.00,-0.11,1.34,-1.71,-2.26
24760,0.20,0.99,-0.13,1.83,1.46,-1.22
24780,0.20,0.98,-0.14,1.34,1.89,-1.59
24800,0.20,0.99,-0.13,0.79,2.01,-3.23
24820,0.19,0.99,-0.13,0.55,1.65,-3.36
24840,0.18,1.00,-0.12,0.37,1.65,-3.42
24860,0.18,1.00,-0.12,-0.12,1.28,-2.20
24880,0.19,1.00,-0.13,0.18,0.79,-0.67
24900,0.19,0.99,-0.12,0.06,0.18,-0.49
24920,0.19,0.99,-0.13,0.06,0.85,-0.49
24940,0.18,0.99,-0.13,-0.61,0.43,-0.24
24960,0.18,1.00,-0.13,-0.61,0.18,0.24
24980,0.19,0.99,-0.13,-0.67,-0.24,0.61
25000,0.19,0.99,-0.13,-0.37,0.37,0.24
25020,0.19,0.99,-0.13,-0.61,0.43,-0.18
25040,0.18,0.99,-0.13,-0.73,0.61,0.00
25060,0.17,1.00,-0.12,-0.92,-0.06,0.85
25080,0.19,1.00,-0.13,-0.37,-0.98,2.20
25100,0.19,0.99,-0.13,-0.24,-0.61,2.26
25120,0.19,1.00,-0.10,-0.49,-0.49,2.38
25140,0.17,1.01,-0.12,-0.67,-1.71,4.09
25160,0.18,1.00,-0.12,-1.04,-3.17,7.75
25180,0.17,1.02,-0.12,-4.58,-5.74,14.04
25200,0.18,1.06,-0.10,-6.96,-8.79,20.45
25220,0.16,1.11,-0.12,-5.55,-8.48,25.88
25240,0.14,1.18,-0.12,-4.03,-11.84,40.41
25260,0.23,1.14,-0.21,4.76,-17.58,49.01
25280,0.29,1.04,-0.21,4.82,-17.03,52.25
25300,0.31,1.00,-0.24,-3.48,-13.92,50.05
25320,0.30,1.01,-0.23,-15.63,-17.21,51.09
25340,0.29,1.05,-0.18,-22.83,-18.43,52.67
25360,0.31,1.05,-0.10,-26.25,-20.81,55.91
25380,0.35,0.98,-0.02,-27.83,-19.17,59.08
25400,0.38,0.94,-0.03,-28.44,-14.95,59.69
25420,0.41,0.87,-0.05,-29.54,-12.08,60.73
25440,0.48,0.77,-0.03,-29.60,-9.83,53.59
25460,0.50,0.75,-0.03,-28.81,-7.63,48.16
25480,0.53,0.72,0.00,-26.92,-9.89,40.16
25500,0.54,0.73,0.05,-23.07,-8.24,29.66
25520,0.57,0.72,0.05,-19.35,-6.84,21.73
25540,0.55,0.72,0.03,-15.69,-1.28,14.40
25560,0.58,0.76,0.06,-8.48,-0.73,2.62
25580,0.59,0.68,0.07,-2.99,-1.04,-4.39
25600,0.59,0.66,0.15,3.78,-0.12,-15.81
25620,0.53,0.70,0.13,10.19,7.20,-30.46
25640,0.53,0.78,0.02,20.32,7.63,-34.73
25660,0.51,0.82,-0.02,22.28,8.67,-39.49
25680,0.51,0.82,-0.04,21.85,8.85,-59.69
25700,0.44,0.81,-0.02,21.79,12.76,-53.53
25720,0.34,1.01,-0.03,21.18,13.18,-56.34
25740,0.39,0.93,-0.06,20.51,8.18,-50.11
25760,0.39,0.92,-0.10,13.49,10.50,-51.33
25780,0.39,0.86,-0.05,8.54,12.33,-54.99
25800,0.35,0.89,-0.02,7.81,16.66,-61.16
25820,0.26,1.00,0.03,11.47,18.37,-64.51
25840,0.33,0.92,-0.10,13.24,23.19,-60.30
25860,0.46,0.89,-0.25,12.51,34.42,-68.85
25880,-0.03,1.55,-0.46,7.51,63.84,-87.46
25900,-0.23,1.53,0.17,32.29,9.28,-56.58
25920,0.04,1.02,-0.23,12.51,14.89,-7.32
25940,0.21,0.97,-0.10,1.83,3.11,-1.53
25960,0.22,1.00,-0.08,10.13,10.38,-0.61
25980,0.20,0.98,-0.15,12.27,13.31,0.43
26000,0.20,0.98,-0.15,7.63,1.95,-5.13
26020,0.19,0.98,-0.16,3.60,-0.85,-6.16
26040,0.20,0.99,-0.15,0.31,-2.38,-7.57
26060,0.20,0.99,-0.15,-2.26,-3.05,-9.58
26080,0.22,1.00,-0.08,-4.09,-6.23,-10.50
26100,0.18,1.00,-0.13,-3.66,-9.16,-8.79
26120,0.17,1.00,-0.13,-2.75,-7.87,-8.42
26140,0.18,0.99,-0.14,-2.08,-4.94,-6.29
26160,0.19,0.99,-0.15,-2.32,-4.21,-5.62
26180,0.17,0.99,-0.13,-3.11,-3.11,-6.10
26200,0.18,0.99,-0.14,-3.42,-1.34,-4.09
26220,0.17,1.00,-0.13,-3.60,-0.06,-2.75
26240,0.17,1.00,-0.12,-2.69,0.55,-1.71
26260,0.17,1.00,-0.12,-1.40,0.43,0.00
26280,0.17,1.00,-0.12,-0.31,0.98,1.04
26300,0.18,1.00,-0.13,-0.12,1.28,1.71
26320,0.18,0.99,-0.13,0.00,1.53,1.28
26340,0.17,1.00,-0.13,-0.12,1.46,1.65
26360,0.18,0.99,-0.14,0.18,1.65,1.83
26380,0.18,0.99,-0.14,-0.43,1.89,1.77
26400,0.18,0.99,-0.14,-0.18,2.14,2.14
26420,0.18,0.99,-0.13,-0.18,2.75,2.14
26440,0.18,0.99,-0.13,-0.12,3.66,2.38
26460,0.18,0.99,-0.13,0.00,4.33,2.56
26480,0.19,0.99,-0.14,0.18,4.33,2.81
26500,0.19,0.99,-0.14,-0.31,4.15,2.26
26520,0.19,0.99,-0.14,-0.12,3.42,2.08
26540,0.18,0.99,-0.13,-0.73,3.11,1.95
26560,0.17,0.99,-0.14,-2.14,2.81,2.26
26580,0.18,0.99,-0.14,-5.43,0.43,4.76
26600,0.16,1.00,-0.12,-8.00,-1.83,6.16
26620,0.17,1.00,-0.13,-9.70,-5.13,7.93
26640,0.17,1.03,-0.11,-13.18,-12.33,14.16
26660,0.19,1.02,-0.11,-17.15,-15.26,18.92
26680,0.18,1.06,-0.12,-19.96,-17.09,21.61
26700,0.17,1.14,-0.12,-15.14,-18.74,28.99
26720,0.21,1.09,-0.18,-8.30,-19.59,35.10
26740,0.26,1.13,-0.13,-5.37,-17.46,38.21
26760,0.29,1.08,-0.16,-6.96,-11.41,44.68
26780,0.26,1.12,-0.15,-12.88,-10.25,47.73
26800,0.27,1.07,-0.14,-17.21,-11.60,52.98
26820,0.30,1.03,-0.13,-24.66,-11.90,55.91
26840,0.33,0.98,-0.08,-28.08,-12.63,57.01
26860,0.36,0.92,-0.03,-31.13,-12.33,57.01
26880,0.38,0.89,-0.01,-32.23,-10.50,55.48
26900,0.46,0.77,0.02,-32.10,-8.54,52.31
26920,0.52,0.69,0.03,-31.43,-4.76,45.23
26940,0.52,0.64,0.01,-29.11,-0.06,17.94
26960,0.51,0.73,0.09,-22.28,-0.18,14.47
26980,0.51,0.75,0.11,-15.50,-1.89,8.36
27000,0.53,0.74,0.13,-9.03,-1.59,1.95
27020,0.55,0.71,0.08,-0.55,1.59,-10.99
27040,0.57,0.69,0.07,5.07,4.09,-22.46
27060,0.49,0.79,0.13,11.17,5.74,-35.16
27080,0.38,1.02,0.17,23.01,7.02,-40.83
27100,0.42,0.94,0.05,30.03,6.77,-33.51
27120,0.48,0.76,-0.11,30.46,11.35,-32.78
27140,0.49,0.72,-0.22,21.30,17.82,-49.26
27160,0.37,0.86,0.01,15.63,13.06,-60.79
27180,0.17,1.23,0.21,21.06,9.03,-61.89
27200,0.22,1.03,-0.00,34.06,8.42,-32.29
27220,0.41,0.80,-0.20,30.82,18.74,-31.56
27240,0.47,0.65,-0.27,20.81,25.39,-47.18
27260,0.49,0.63,-0.14,7.14,36.44,-82.58
27280,0.13,1.61,-0.37,8.67,53.47,-95.21
27300,-0.04,1.52,0.00,19.59,25.88,-57.86
27320,0.08,1.20,-0.07,22.64,7.08,-15.56
27340,0.13,1.04,-0.12,-4.09,12.70,-6.47
27360,0.15,1.04,-0.03,-3.30,3.05,-5.19
27380,0.21,1.00,-0.07,2.62,5.25,-0.31
27400,0.21,0.97,-0.14,5.80,3.48,-0.92
27420,0.22,0.96,-0.16,3.85,1.65,-2.50
27440,0.22,0.95,-0.18,1.28,2.75,-4.76
27460,0.18,1.00,-0.12,-1.59,3.66,-7.81
27480,0.17,1.01,-0.11,-1.22,2.50,-6.41
27500,0.17,1.01,-0.10,-0.73,0.67,-4.21
27520,0.20,1.00,-0.10,0.67,-0.37,-1.22
27540,0.19,1.00,-0.11,1.71,0.12,-0.98
27560,0.19,0.99,-0.14,2.44,1.65,0.61
27580,0.19,0.99,-0.14,-0.43,0.49,-0.43
27600,0.20,0.99,-0.14,-1.59,0.24,-0.61
27620,0.19,0.99,-0.13,-2.75,-0.24,-1.46
27640,0.19,0.99,-0.09,-2.44,0.18,-1.59
27660,0.19,1.00,-0.12,-1.40,0.55,-1.28
27680,0.19,1.00,-0.12,-0.98,0.73,-0.98
27700,0.19,1.00,-0.12,-0.79,0.98,-0.18
27720,0.19,0.99,-0.13,-1.04,0.98,0.12
27740,0.19,0.99,-0.13,-1.65,0.85,-0.31
27760,0.19,0.99,-0.13,-2.01,0.55,-0.49
27780,0.20,0.99,-0.13,-2.81,0.24,-0.92
27800,0.19,0.99,-0.12,-2.62,0.06,-0.98
27820,0.19,0.99,-0.13,-2.32,0.18,-0.98
27840,0.19,0.99,-0.12,-2.14,0.12,-0.92
27860,0.18,1.00,-0.12,-2.01,-0.12,-0.31
27880,0.19,0.99,-0.12,-2.20,-0.92,0.43
27900,0.20,0.99,-0.13,-2.01,-1.04,0.61
27920,0.19,0.99,-0.12,-2.20,-1.04,0.37
27940,0.19,1.00,-0.12,-1.77,-0.79,0.61
27960,0.19,1.00,-0.12,-1.53,-1.83,2.81
27980,0.21,0.99,-0.13,-1.77,-2.26,3.60
28000,0.19,1.00,-0.11,-1.65,-1.95,3.30
28020,0.18,1.01,-0.10,-1.53,-3.36,6.84
28040,0.18,1.02,-0.10,-2.20,-4.94,10.80
28060,0.20,1.01,-0.13,-4.15,-5.00,14.65
28080,0.19,1.04,-0.10,-3.91,-6.96,19.41
28100,0.17,1.12,-0.12,-2.44,-10.07,26.92
28120,0.23,1.11,-0.05,1.59,-15.44,35.64
28140,0.20,1.12,-0.14,9.58,-14.04,44.31
28160,0.30,1.02,-0.17,10.50,-12.76,45.59
28180,0.28,1.02,-0.22,5.00,-9.16,45.47
28200,0.30,1.03,-0.23,-4.39,-8.18,44.80
28220,0.30,1.04,-0.20,-13.37,-12.08,46.33
28240,0.32,1.01,-0.15,-17.52,-15.75,48.40
28260,0.35,0.98,-0.09,-20.69,-16.24,49.50
28280,0.38,0.92,-0.08,-22.83,-13.73,48.65
28300,0.41,0.88,-0.05,-23.50,-13.55,47.61
28320,0.44,0.86,-0.05,-24.48,-11.11,45.96
28340,0.47,0.79,-0.02,-23.74,-8.48,42.05
28360,0.49,0.79,-0.02,-21.67,-6.29,35.89
28380,0.52,0.76,0.03,-18.98,-9.22,28.14
28400,0.53,0.74,0.02,-14.65,-4.64,19.35
28420,0.54,0.76,0.03,-11.60,-3.05,10.80
28440,0.55,0.76,0.04,-8.42,-0.79,4.21
28460,0.56,0.74,0.05,-2.75,1.53,-6.59
28480,0.58,0.62,0.08,1.34,6.47,-19.59
28500,0.53,0.68,0.07,6.47,10.86,-34.24
28520,0.48,0.80,0.01,15.93,11.17,-45.90
28540,0.43,0.89,-0.02,19.90,7.32,-47.79
28560,0.44,0.84,-0.06,19.59,7.20,-48.28
28580,0.49,0.72,-0.12,15.32,10.80,-57.01
28600,0.39,0.74,-0.12,6.23,19.53,-70.19
28620,0.19,1.16,0.05,7.93,16.78,-78.80
28640,0.15,1.27,0.14,18.37,9.40,-61.77
28660,0.33,0.98,-0.08,27.04,19.41,-41.93
28680,0.44,0.84,-0.29,22.09,29.97,-47.91
28700,0.49,0.78,-0.47,8.12,47.49,-66.53
28720,-0.37,1.64,-0.13,-6.04,50.11,-81.67
28740,-0.05,1.34,0.10,14.77,4.39,-32.65
28760,0.17,1.03,-0.11,-0.24,5.68,-1.77
28780,0.23,0.99,-0.09,-1.22,1.34,-2.87
28800,0.23,0.96,-0.15,0.92,7.45,-3.54
28820,0.22,0.97,-0.15,0.00,4.82,-8.06
28840,0.17,0.99,-0.13,-1.71,3.23,-9.70
28860,0.19,0.99,-0.13,-3.05,-0.12,-8.48
28880,0.19,1.00,-0.11,-3.54,-0.67,-7.51
28900,0.19,1.00,-0.11,-2.44,-0.73,-6.16
28920,0.18,1.00,-0.10,-1.22,-0.43,-4.76
28940,0.22,1.00,-0.07,-0.24,-0.12,-3.36
28960,0.20,1.00,-0.10,0.18,0.31,-2.32
28980,0.19,0.99,-0.12,0.24,1.28,-0.24
29000,0.19,0.99,-0.13,-0.49,0.73,-0.49
29020,0.19,0.99,-0.13,-0.92,-0.12,-1.04
29040,0.19,0.99,-0.12,-1.10,-0.73,-1.28
29060,0.19,0.99,-0.12,-1.16,-0.31,-1.40
29080,0.19,0.99,-0.12,-1.22,-0.12,-1.34
29100,0.18,0.99,-0.13,-1.40,0.49,-1.10
29120,0.19,0.99,-0.12,-1.46,0.24,-1.10
29140,0.19,0.99,-0.12,-1.65,0.55,-0.61
29160,0.19,0.99,-0.12,-1.59,-0.06,-0.37
29180,0.19,0.99,-0.12,-1.34,-0.37,-0.06
29200,0.19,0.99,-0.12,-1.34,-0.24,-0.18
29220,0.19,1.00,-0.12,-1.40,0.06,-0.49
29240,0.19,0.99,-0.12,-1.16,-0.18,-0.18
29260,0.19,0.99,-0.12,-1.22,0.12,-0.06
29280,0.19,0.99,-0.12,-1.34,-0.37,0.92
29300,0.19,0.99,-0.12,-1.95,-0.24,0.49
29320,0.19,0.99,-0.12,-2.01,-0.31,0.55
29340,0.20,0.99,-0.12,-1.59,0.06,0.67
29360,0.19,1.00,-0.11,-1.34,-0.06,0.92
29380,0.19,0.99,-0.12,-1.40,-0.31,1.65
29400,0.18,1.00,-0.11,-1.77,-1.46,2.62
29420,0.17,1.01,-0.10,-3.05,-2.08,4.15
29440,0.19,1.01,-0.10,-4.58,-3.97,7.93
29460,0.20,1.00,-0.11,-4.70,-3.42,9.58
29480,0.19,1.01,-0.11,-7.26,-4.94,12.21
29500,0.19,1.02,-0.12,-9.34,-5.98,15.44
29520,0.23,1.00,-0.10,-10.62,-7.08,18.13
29540,0.21,1.06,-0.09,-9.77,-7.63,21.12
29560,0.21,1.10,-0.11,-7.57,-9.64,25.94
29580,0.25,1.07,-0.12,-4.70,-11.54,29.30
29600,0.25,1.18,-0.10,-0.85,-10.99,37.05
29620,0.27,1.11,-0.10,-1.71,-8.54,44.86
29640,0.27,1.07,-0.15,-5.49,-6.96,48.46
29660,0.31,0.99,-0.15,-12.39,-8.61,50.96
29680,0.31,0.98,-0.13,-16.17,-10.25,50.17
29700,0.34,0.94,-0.08,-19.10,-13.18,50.96
29720,0.34,0.99,-0.06,-22.09,-13.31,52.92
29740,0.41,0.86,-0.04,-24.72,-12.08,54.02
29760,0.40,0.90,-0.06,-26.49,-7.63,50.66
29780,0.45,0.83,-0.01,-28.08,-6.53,48.89
29800,0.49,0.83,0.02,-27.10,-5.68,45.17
29820,0.53,0.77,0.06,-24.17,-8.30,39.49
29840,0.53,0.74,0.04,-21.24,-3.78,29.30
29860,0.55,0.73,0.09,-14.22,-4.27,20.81
29880,0.57,0.73,0.08,-9.09,-2.69,13.24
29900,0.58,0.72,0.06,-5.13,-1.16,4.64
29920,0.61,0.62,0.07,0.31,1.59,-10.01
29940,0.57,0.69,0.07,5.07,4.09,-24.29
29960,0.54,0.77,0.12,10.56,3.66,-34.73
29980,0.50,0.80,0.05,19.65,5.43,-45.65
30000,0.45,0.85,0.01,23.25,5.07,-50.78
30020,0.43,0.90,-0.06,22.34,5.74,-51.51
30040,0.46,0.85,-0.09,16.97,6.71,-51.51
30060,0.46,0.71,-0.02,14.77,8.00,-58.29
30080,0.43,0.71,-0.02,12.94,11.17,-68.05
30100,0.18,1.26,0.02,13.79,8.36,-73.91
30120,0.23,1.20,0.01,18.07,6.71,-56.27
30140,0.30,1.03,-0.04,22.52,10.50,-45.10
30160,0.40,0.81,-0.10,20.39,23.07,-55.73
30180,0.45,0.95,-0.17,16.17,37.96,-76.23
30200,-0.18,1.87,-0.85,18.68,63.84,-88.87
30220,-0.27,1.48,-0.02,46.02,14.28,-35.89
30240,0.19,1.01,-0.12,5.68,3.54,-4.15
30260,0.20,1.01,-0.08,-5.86,-1.34,-4.33
30280,0.21,1.00,-0.07,-2.81,-0.43,-3.60
30300,0.20,0.99,-0.12,-0.18,-0.85,-6.90
30320,0.19,0.99,-0.14,-1.59,-1.77,-9.16
30340,0.18,0.98,-0.14,-3.23,-2.14,-9.03
30360,0.18,0.99,-0.13,-4.52,-1.40,-8.30
30380,0.17,1.00,-0.11,-4.58,-0.98,-6.71
30400,0.18,1.00,-0.11,-3.78,-0.55,-5.13
30420,0.18,1.00,-0.10,-1.77,-0.43,-4.88
30440,0.17,1.00,-0.11,-0.24,-0.79,-5.00
30460,0.16,1.00,-0.11,0.55,-0.67,-4.52
30480,0.17,0.99,-0.12,-0.37,-0.55,-2.93
30500,0.17,0.99,-0.12,-1.10,-0.06,-2.75
30520,0.17,1.00,-0.12,-2.20,0.06,-2.14
30540,0.18,1.00,-0.12,-1.46,0.24,-1.71
30560,0.17,1.00,-0.11,-1.04,0.31,-1.65
30580,0.17,1.00,-0.11,-0.18,0.31,-1.10
30600,0.17,1.00,-0.11,0.06,0.61,-0.18
30620,0.17,1.00,-0.12,0.00,0.49,0.37
30640,0.17,1.00,-0.12,0.06,0.43,0.85
30660,0.18,1.00,-0.12,0.24,0.61,1.16
30680,0.17,1.00,-0.12,0.12,0.98,1.16
30700,0.18,1.00,-0.12,0.18,1.04,1.28
30720,0.17,1.00,-0.12,0.37,1.46,1.40
30740,0.17,1.00,-0.12,0.61,1.77,1.53
30760,0.18,1.00,-0.12,0.73,1.83,1.95
30780,0.17,1.00,-0.12,0.85,2.20,2.08
30800,0.18,1.00,-0.12,0.67,2.62,2.44
30820,0.18,0.99,-0.12,1.10,2.69,2.38
30840,0.18,0.99,-0.13,1.34,2.50,2.14
30860,0.19,0.99,-0.13,0.85,2.81,2.08
30880,0.18,1.00,-0.13,0.61,2.93,2.14
30900,0.17,0.99,-0.13,-0.18,2.69,2.44
30920,0.18,0.99,-0.13,-1.59,1.10,4.58
30940,0.18,0.99,-0.14,-3.91,-0.12,5.07
30960,0.19,0.99,-0.13,-6.23,-1.83,5.19
30980,0.19,0.99,-0.09,-8.18,-2.62,5.25
31000,0.13,1.03,-0.10,-9.40,-5.31,8.18
31020,0.15,1.06,-0.08,-12.15,-10.13,15.81
31040,0.20,1.04,-0.11,-10.80,-9.46,22.71
31060,0.19,1.08,-0.09,-9.95,-12.33,26.55
31080,0.20,1.11,-0.13,-6.10,-11.96,32.04
31100,0.20,1.14,-0.16,-1.95,-13.67,40.04
31120,0.25,1.09,-0.17,-1.40,-12.57,45.47
31140,0.28,1.08,-0.18,-7.81,-9.58,49.32
31160,0.27,1.07,-0.22,-14.53,-8.91,52.12
31180,0.28,1.07,-0.15,-25.02,-12.21,57.31
31200,0.33,0.97,-0.12,-30.94,-13.67,60.12
31220,0.36,0.91,-0.07,-34.85,-13.61,58.78
31240,0.40,0.82,0.00,-36.87,-10.56,53.65
31260,0.45,0.76,0.06,-35.10,-9.58,48.58
31280,0.46,0.78,0.03,-31.98,-4.21,42.30
31300,0.48,0.80,0.05,-26.06,-2.44,34.67
31320,0.51,0.79,0.06,-22.28,-7.14,26.06
31340,0.51,0.79,0.06,-18.86,-3.36,22.40
31360,0.52,0.81,0.09,-12.88,-4.52,12.15
31380,0.52,0.81,0.10,-8.36,-3.66,7.51
31400,0.52,0.81,0.09,-4.82,-1.83,2.75
31420,0.53,0.79,0.10,0.79,0.37,-4.33
31440,0.54,0.75,0.05,3.48,3.11,-11.66
31460,0.53,0.74,0.03,6.77,4.39,-20.14
31480,0.51,0.79,0.09,10.25,4.70,-33.08
31500,0.49,0.78,0.09,17.15,4.09,-39.12
31520,0.46,0.82,0.03,19.96,5.74,-45.84
31540,0.45,0.83,-0.01,21.30,5.55,-49.99
31560,0.44,0.80,-0.03,20.94,6.77,-55.11
31580,0.42,0.67,-0.00,20.02,8.36,-62.07
31600,0.34,0.87,-0.03,17.46,12.21,-71.41
31620,0.15,1.33,0.10,26.31,4.70,-66.41
31640,0.24,1.12,0.06,35.71,9.28,-46.08
31660,0.41,0.76,-0.06,38.15,17.58,-42.60
31680,0.69,0.78,-0.54,27.53,55.18,-84.17
31700,-0.34,2.02,-0.36,24.29,69.46,-102.23
31720,-0.10,1.44,0.25,32.53,-11.72,-39.31
31740,0.21,1.00,-0.09,-8.12,-2.32,1.28
31760,0.22,1.01,-0.05,-3.72,2.20,0.73
31780,0.21,0.99,-0.09,2.81,7.45,0.92
31800,0.21,0.98,-0.14,5.07,5.92,-3.23
31820,0.20,0.98,-0.15,2.50,4.27,-4.64
31840,0.19,0.99,-0.14,-0.67,2.99,-5.37
31860,0.19,0.99,-0.13,-1.95,3.30,-5.19
31880,0.18,1.00,-0.11,-1.10,3.23,-4.76
31900,0.20,1.00,-0.07,-0.12,2.32,-3.97
31920,0.19,1.00,-0.10,0.98,1.16,-2.93
31940,0.19,0.99,-0.12,2.01,1.53,-2.56
31960,0.19,0.99,-0.13,1.28,1.71,-2.08
31980,0.19,0.99,-0.14,-0.73,0.61,-2.14
32000,0.19,0.99,-0.13,-3.23,0.43,-2.69
32020,0.18,1.00,-0.12,-3.11,0.49,-2.87
32040,0.18,1.00,-0.11,-1.65,0.31,-2.50
32060,0.18,1.00,-0.12,0.06,0.79,-1.77
32080,0.18,1.00,-0.12,-0.24,0.85,-1.10
32100,0.18,1.00,-0.13,-0.67,0.98,-0.31
32120,0.18,0.99,-0.13,-0.98,0.49,0.18
32140,0.18,0.99,-0.13,-1.34,0.37,0.18
32160,0.19,0.99,-0.13,-1.10,0.24,0.12
32180,0.18,0.99,-0.13,-0.98,0.85,-0.55
32200,0.18,1.00,-0.13,-1.22,0.98,-0.55
32220,0.18,1.00,-0.12,-1.22,0.98,-0.18
32240,0.18,0.99,-0.12,-1.10,0.79,0.06
32260,0.18,1.00,-0.12,-1.22,0.92,0.24
32280,0.19,0.99,-0.13,-1.28,0.73,0.49
32300,0.18,0.99,-0.12,-0.98,0.92,0.49
32320,0.19,0.99,-0.13,0.12,0.98,0.55
32340,0.19,0.99,-0.13,0.67,1.22,0.18
32360,0.19,0.99,-0.13,0.37,1.28,0.31
32380,0.17,1.00,-0.12,-0.79,1.04,0.79
32400,0.17,1.00,-0.12,-2.20,-0.12,2.01
32420,0.18,0.99,-0.12,-3.54,-1.10,2.50
32440,0.18,1.00,-0.12,-5.13,-2.93,3.66
32460,0.19,1.00,-0.11,-5.55,-4.33,5.25
32480,0.18,1.01,-0.11,-5.13,-5.07,6.29
32500,0.17,1.02,-0.10,-4.46,-6.59,11.35
32520,0.18,1.03,-0.11,-4.94,-7.87,15.26
32540,0.20,1.05,-0.10,-5.92,-9.16,20.14
32560,0.17,1.10,-0.16,-4.70,-8.24,27.71
32580,0.21,1.09,-0.14,-1.71,-10.86,32.78
32600,0.24,1.08,-0.16,0.49,-10.01,36.56
32620,0.26,1.04,-0.18,0.12,-7.63,40.83
32640,0.26,1.09,-0.22,-7.57,-5.86,41.87
32660,0.28,1.01,-0.21,-13.24,-8.06,44.07
32680,0.29,1.00,-0.19,-23.38,-10.56,45.10
32700,0.29,1.02,-0.12,-27.34,-11.78,46.02
32720,0.33,1.01,-0.11,-31.43,-13.67,49.74
32740,0.35,0.95,-0.07,-33.94,-12.76,52.25
32760,0.38,0.90,-0.00,-34.55,-8.73,50.29
32780,0.43,0.83,0.01,-31.92,-7.08,49.19
32800,0.45,0.84,0.01,-31.07,-3.78,31.49
32820,0.48,0.83,0.01,-29.36,-2.26,41.75
32840,0.49,0.79,0.00,-27.53,-3.48,39.43
32860,0.51,0.79,-0.00,-28.38,-3.66,33.94
32880,0.57,0.72,0.05,-25.51,-5.43,23.19
32900,0.59,0.64,0.11,-20.14,-4.03,12.33
32920,0.60,0.63,0.17,-13.49,-2.99,-0.18
32940,0.59,0.65,0.20,-1.40,2.38,-23.74
32960,0.55,0.71,0.22,10.19,3.11,-37.05
32980,0.50,0.80,0.19,23.38,4.03,-47.00
33000,0.47,0.79,0.03,36.13,3.60,-53.77
33020,0.52,0.64,-0.10,35.10,5.00,-59.14
33040,0.43,0.76,-0.14,27.40,10.93,-71.23
33060,0.23,1.15,0.09,28.93,2.75,-68.85
33080,0.29,0.98,0.07,31.92,5.31,-56.03
33100,0.26,0.99,0.01,36.68,9.58,-57.50
33120,0.32,0.97,-0.09,30.27,21.85,-52.98
33140,0.40,0.87,-0.16,22.46,21.30,-58.04
33160,0.46,0.93,-0.24,11.84,36.25,-75.20
33180,-0.12,1.60,-0.90,7.39,62.19,-85.08
33200,-0.05,1.40,0.13,32.53,-3.42,-39.18
33220,0.15,0.98,-0.22,-2.62,8.61,0.79
33240,0.18,1.01,-0.10,-10.99,2.01,-3.91
33260,0.22,1.00,-0.08,-3.85,3.48,-3.48
33280,0.21,0.98,-0.12,-1.34,4.58,-4.33
33300,0.20,0.98,-0.13,-2.20,0.92,-7.02
33320,0.20,0.98,-0.12,-4.52,-0.67,-8.30
33340,0.22,1.01,-0.03,-4.09,-1.28,-9.52
33360,0.19,1.01,-0.06,-2.44,-0.67,-7.57
33380,0.18,1.00,-0.09,0.24,-2.20,-5.74
33400,0.18,1.00,-0.10,0.92,-0.61,-3.91
33420,0.18,1.00,-0.10,0.24,0.00,-2.08
33440,0.18,1.00,-0.11,-0.43,-0.37,-0.61
33460,0.18,1.00,-0.10,-1.16,-0.06,-0.24
33480,0.18,1.00,-0.10,-0.98,0.12,0.06
33500,0.19,0.99,-0.10,-0.43,0.31,-0.31
33520,0.18,1.00,-0.10,0.18,0.49,-0.43
33540,0.18,1.00,-0.10,0.73,0.49,-0.49
33560,0.18,1.00,-0.10,0.79,0.37,-0.12
33580,0.18,1.00,-0.11,0.67,0.31,0.12
33600,0.18,1.00,-0.10,0.24,0.31,0.43
33620,0.19,1.00,-0.11,-0.06,0.12,1.10
33640,0.18,1.00,-0.11,-0.12,-0.06,0.92
33660,0.19,0.99,-0.11,-0.67,-0.31,0.92
33680,0.19,1.00,-0.11,-1.10,-0.18,0.37
33700,0.18,1.00,-0.10,-0.55,0.06,0.06
33720,0.18,1.00,-0.11,-0.61,-0.24,0.79
33740,0.19,1.00,-0.11,-0.98,-0.55,1.10
33760,0.18,1.00,-0.10,-1.16,-0.61,1.40
33780,0.18,1.00,-0.10,-1.40,-1.10,2.01
33800,0.19,1.00,-0.11,-1.65,-1.10,2.32
33820,0.19,0.99,-0.11,-2.26,-1.28,2.56
33840,0.20,1.00,-0.11,-2.75,-1.53,2.56
33860,0.19,0.99,-0.11,-2.87,-1.53,2.50
33880,0.20,1.00,-0.11,-5.19,-1.95,2.69
33900,0.19,1.01,-0.09,-6.53,-2.20,4.27
33920,0.19,1.01,-0.09,-6.53,-2.14,6.16
33940,0.19,1.01,-0.10,-7.32,-4.03,8.73
33960,0.19,1.01,-0.11,-7.39,-4.39,9.52
33980,0.21,1.00,-0.12,-9.34,-6.16,11.96
34000,0.19,1.04,-0.11,-10.31,-7.57,15.81
34020,0.18,1.09,-0.13,-8.91,-8.91,19.47
34040,0.22,1.07,-0.12,-5.49,-13.61,23.19
34060,0.25,1.04,-0.13,-3.48,-15.08,25.63
34080,0.27,1.00,-0.17,-2.93,-16.66,31.98
34100,0.23,1.12,-0.06,-13.61,-14.59,31.56
34120,0.27,1.08,-0.04,-16.48,-14.40,36.13
34140,0.28,1.06,-0.03,-20.57,-10.25,43.03
34160,0.29,1.02,-0.08,-22.77,-7.63,45.84
34180,0.30,1.02,-0.07,-25.94,-8.30,47.30
34200,0.34,0.95,-0.05,-28.81,-10.62,51.51
34220,0.37,0.90,-0.02,-30.70,-10.50,52.98
34240,0.40,0.88,0.03,-29.79,-9.22,51.57
34260,0.42,0.87,0.09,-26.43,-8.54,49.62
34280,0.47,0.83,0.10,-22.64,-7.26,46.26
34300,0.50,0.76,0.10,-18.98,-4.82,40.95
34320,0.52,0.74,0.09,-13.00,-1.83,28.75
34340,0.54,0.73,0.12,-8.85,-3.72,19.23
34360,0.55,0.71,0.11,-5.62,-1.34,10.68
34380,0.59,0.64,0.10,-1.59,0.31,-6.41
34400,0.57,0.64,0.12,3.91,3.60,-22.46
34420,0.53,0.73,0.16,10.68,3.60,-35.89
34440,0.49,0.80,0.13,17.76,3.97,-48.71
34460,0.47,0.80,0.04,23.13,2.93,-52.55
34480,0.46,0.75,-0.08,20.94,6.53,-58.78
34500,0.40,0.87,-0.09,17.40,6.96,-67.63
34520,0.27,1.04,0.13,22.58,3.60,-64.51
34540,0.25,1.09,0.11,29.30,4.03,-56.15
34560,0.30,0.99,0.01,32.47,7.32,-47.49
34580,0.32,0.97,-0.15,25.45,15.69,-47.06
34600,0.35,0.83,-0.12,21.06,16.91,-52.00
34620,0.26,0.97,0.00,21.91,18.07,-58.78
34640,0.08,1.31,-0.23,30.64,34.36,-52.06
34660,0.04,1.20,-0.28,30.40,28.81,-35.16
34680,0.13,1.09,-0.21,19.90,18.92,-19.84
34700,0.17,1.02,-0.09,1.22,6.10,-18.37
34720,0.15,1.03,-0.06,-1.53,7.63,-14.65
34740,0.17,1.02,-0.06,-0.37,2.93,-9.22
34760,0.20,0.99,-0.10,2.08,0.61,-8.67
34780,0.20,1.00,-0.10,3.72,1.59,-8.91
34800,0.20,1.00,-0.11,6.35,3.48,-6.35
34820,0.18,1.00,-0.09,7.02,5.13,-4.46
34840,0.18,1.00,-0.10,6.47,4.82,-3.60
34860,0.18,1.00,-0.11,7.14,4.21,-2.26
34880,0.18,1.00,-0.12,5.55,2.93,-1.65
34900,0.19,0.99,-0.13,4.39,0.73,-1.89
34920,0.19,0.99,-0.13,2.99,-0.06,-3.30
34940,0.19,0.99,-0.14,1.34,-1.04,-4.27
34960,0.19,0.99,-0.14,-0.18,-2.20,-6.10
34980,0.18,0.99,-0.13,-0.67,-2.81,-6.71
35000,0.17,1.00,-0.12,-0.43,-2.99,-6.59
35020,0.17,1.00,-0.11,-0.24,-4.58,-5.74
35040,0.17,1.00,-0.12,0.12,-5.68,-5.55
35060,0.17,1.00,-0.12,0.79,-5.68,-5.49
35080,0.17,1.00,-0.12,1.40,-6.90,-4.64
35100,0.16,1.00,-0.11,1.71,-10.07,-5.92
35120,0.15,1.00,-0.12,0.61,-14.95,-7.63
35140,0.18,0.99,-0.14,-0.06,-19.84,-11.17
35160,0.16,1.00,-0.12,0.24,-17.15,-9.52
35180,0.17,1.00,-0.12,0.43,-16.24,-9.03
35200,0.15,1.00,-0.12,0.73,-15.93,-9.46
35220,0.15,0.99,-0.14,0.67,-15.99,-9.28
35240,0.15,0.98,-0.15,-0.98,-12.70,-6.10
35260,0.16,0.99,-0.14,-2.69,-5.19,1.10
35280,0.15,0.99,-0.13,-3.97,-0.55,2.87
35300,0.14,1.00,-0.11,-4.33,2.38,6.90
35320,0.18,1.01,-0.11,-4.15,4.09,10.13
35340,0.19,1.00,-0.10,-2.93,-0.73,8.73
35360,0.18,1.00,-0.12,-1.77,-2.01,5.07
35380,0.20,1.00,-0.11,-2.50,-2.75,3.36
35400,0.18,0.99,-0.12,-3.91,-4.21,-1.34
35420,0.18,0.99,-0.13,-4.70,-4.88,-2.62
35440,0.15,0.99,-0.14,-5.37,-4.03,-1.46
35460,0.17,0.99,-0.14,-12.02,-2.44,4.33
35480,0.18,1.00,-0.10,-17.33,-1.04,5.80
35500,0.17,1.01,-0.06,-16.24,1.22,6.84
35520,0.19,1.01,-0.06,-9.70,5.00,7.32
35540,0.16,1.03,-0.05,-6.35,6.84,7.32
35560,0.16,1.02,-0.07,-3.11,4.88,9.70
35580,0.17,1.02,-0.11,-2.93,-2.99,12.39
35600,0.20,1.02,-0.10,-5.43,-7.32,12.27
35620,0.16,1.06,-0.08,-8.12,-8.42,14.34
35640,0.22,1.04,-0.10,-7.39,-10.07,19.47
35660,0.20,1.06,-0.08,-4.03,-13.24,22.46
35680,0.21,1.12,-0.07,-2.81,-13.55,26.49
35700,0.28,1.06,-0.09,-1.53,-12.08,32.17
35720,0.26,1.06,-0.12,-7.32,-6.71,34.36
35740,0.25,1.06,-0.14,-12.15,-5.86,37.05
35760,0.25,1.08,-0.12,-16.60,-7.87,41.50
35780,0.29,1.01,-0.08,-22.71,-9.34,47.67
35800,0.31,0.96,-0.05,-24.54,-8.36,49.50
35820,0.34,0.93,-0.03,-25.09,-8.00,49.87
35840,0.38,0.87,0.01,-23.86,-7.08,46.45
35860,0.39,0.88,0.03,-21.73,-5.43,44.07
35880,0.41,0.87,0.04,-19.17,-4.52,41.63
35900,0.46,0.79,-0.00,-16.30,-4.39,37.72
35920,0.49,0.78,-0.01,-15.87,-2.99,31.19
35940,0.50,0.75,-0.01,-15.69,-2.99,24.41
35960,0.50,0.71,0.01,-15.99,-4.70,12.21
35980,0.56,0.63,-0.03,-19.04,-2.56,0.85
36000,0.49,0.71,-0.02,-17.94,-2.87,-14.47
36020,0.44,0.87,-0.04,-18.25,-9.95,-25.45
36040,0.44,0.95,0.07,-16.78,-19.35,-24.05
36060,0.45,0.88,0.11,-15.50,-20.45,-25.09
36080,0.55,0.65,0.07,-13.24,-16.72,-40.04
36100,0.49,0.73,0.16,1.40,-20.08,-58.96
36120,0.24,1.04,0.42,23.32,-25.88,-66.89
36140,0.32,1.07,0.44,28.56,-26.31,-56.03
36160,0.32,1.01,0.23,31.43,-1.46,-48.52
36180,0.34,0.97,0.17,42.36,12.08,-46.75
36200,0.36,0.73,0.08,53.53,22.83,-50.05
36220,0.14,1.11,0.11,58.90,22.77,-57.80
36240,0.18,1.18,-0.07,65.92,22.16,-39.43
36260,0.27,1.14,-0.41,60.55,34.30,-33.08
36280,0.13,1.14,-0.45,37.78,38.82,-37.84
36300,0.02,1.14,-0.14,25.21,28.99,-29.66
36320,0.00,1.12,-0.03,6.96,11.17,-16.97
36340,0.23,0.98,-0.10,-1.71,-2.08,-2.08
36360,0.21,0.99,-0.10,-0.79,1.53,-4.46
36380,0.22,0.97,-0.14,1.71,1.40,-7.14
36400,0.21,0.98,-0.13,-0.73,0.73,-9.58
36420,0.20,1.00,-0.11,-0.85,-0.18,-11.05
36440,0.18,1.00,-0.11,0.98,0.06,-11.47
36460,0.18,1.00,-0.10,1.10,0.06,-10.31
36480,0.16,1.01,-0.09,0.79,-0.24,-7.93
36500,0.17,1.00,-0.10,-0.31,0.49,-5.13
36520,0.17,1.01,-0.10,-0.43,-0.12,-2.26
36540,0.17,1.00,-0.10,0.37,0.79,-1.10
36560,0.18,1.00,-0.11,0.24,0.73,-0.43
36580,0.18,1.00,-0.11,1.40,1.34,0.24
36600,0.18,1.00,-0.11,3.17,1.46,0.79
36620,0.18,0.99,-0.12,2.69,1.46,0.43
36640,0.18,0.99,-0.12,1.89,1.40,-0.12
36660,0.18,0.99,-0.12,-0.37,0.61,-0.43
36680,0.17,1.00,-0.11,-1.16,0.24,-0.49
36700,0.18,1.00,-0.11,0.00,-0.49,-0.37
36720,0.18,0.99,-0.12,0.73,-0.37,-0.55
36740,0.18,0.99,-0.12,0.06,0.12,-0.92
36760,0.18,1.00,-0.12,-0.37,0.24,-0.85
36780,0.18,1.00,-0.12,-0.31,0.49,-0.79
36800,0.18,1.00,-0.12,0.06,0.55,-0.79
36820,0.18,1.00,-0.11,0.37,0.37,-0.67
36840,0.17,1.00,-0.11,1.71,0.24,-0.67
36860,0.18,1.00,-0.12,1.89,0.43,-0.49
36880,0.17,1.00,-0.12,1.65,0.37,-0.31
36900,0.18,1.00,-0.13,1.89,0.61,0.18
36920,0.18,0.99,-0.13,1.77,0.43,0.49
36940,0.18,0.99,-0.13,1.46,0.73,0.31
36960,0.18,1.00,-0.13,1.16,1.28,0.43
36980,0.17,1.00,-0.12,1.04,1.22,0.73
37000,0.18,0.99,-0.13,1.10,1.28,1.10
37020,0.18,0.99,-0.13,0.79,1.83,0.79
37040,0.18,0.99,-0.13,0.37,2.26,0.67
37060,0.18,0.99,-0.13,0.24,2.26,0.85
37080,0.18,0.99,-0.13,-0.37,2.87,0.73
37100,0.17,0.99,-0.13,-0.98,2.56,1.16
37120,0.16,1.00,-0.13,-1.71,1.34,1.83
37140,0.17,0.99,-0.15,-2.93,0.00,2.87
37160,0.16,1.00,-0.13,-7.20,-2.69,5.13
37180,0.16,1.01,-0.11,-10.86,-4.70,8.24
37200,0.09,1.06,-0.08,-14.65,-8.36,14.16
37220,0.22,1.05,-0.13,-22.28,-16.91,24.35
37240,0.22,1.10,-0.11,-19.47,-17.15,26.18
37260,0.14,1.15,-0.15,-15.26,-17.70,30.52
37280,0.25,1.16,-0.14,-11.78,-14.40,38.15
37300,0.27,1.09,-0.20,-13.18,-13.61,43.82
37320,0.26,1.05,-0.22,-21.00,-10.80,46.33
37340,0.28,1.03,-0.16,-28.14,-13.85,48.83
37360,0.30,0.97,-0.11,-35.46,-13.73,49.74
37380,0.32,0.94,-0.03,-37.84,-14.47,48.77
37400,0.36,0.88,-0.02,-39.00,-13.00,32.23
37420,0.40,0.83,-0.02,-39.73,-11.78,44.92
37440,0.40,0.82,0.01,-38.51,-10.25,40.47
37460,0.44,0.84,0.04,-35.22,-11.29,35.83
37480,0.46,0.83,0.15,-29.91,-13.73,31.07
37500,0.46,0.83,0.19,-22.83,-9.89,25.27
37520,0.49,0.80,0.22,-15.69,-8.42,20.14
37540,0.49,0.82,0.20,-5.80,-2.93,9.89
37560,0.49,0.84,0.19,-1.28,0.12,4.46
37580,0.49,0.85,0.15,1.46,3.60,0.85
37600,0.49,0.80,0.07,6.10,4.82,-6.53
37620,0.48,0.83,0.04,6.84,4.46,-12.82
37640,0.46,0.87,0.05,6.59,3.48,-17.82
37660,0.46,0.87,0.11,8.97,2.01,-22.52
37680,0.46,0.78,0.13,11.84,4.64,-28.63
37700,0.45,0.75,0.10,14.83,6.16,-36.38
37720,0.40,0.85,0.05,14.59,5.25,-47.36
37740,0.35,0.96,-0.02,14.04,5.13,-50.11
37760,0.41,0.90,0.00,15.38,3.42,-50.60
37780,0.41,0.79,0.02,18.98,6.71,-58.96
37800,0.25,0.95,0.08,26.00,6.10,-64.70
37820,0.18,1.16,0.10,32.53,3.36,-60.36
37840,0.27,1.09,0.08,41.32,11.72,-45.96
37860,0.48,0.93,-0.10,45.84,22.34,-51.33
37880,0.45,1.16,-0.23,49.01,52.43,-65.19
37900,-0.04,1.23,-0.24,70.86,83.80,-49.26
37920,0.08,1.04,-0.19,22.09,-3.54,-9.40
37940,0.23,0.98,-0.13,-0.24,-6.84,1.28
37960,0.19,1.00,-0.09,0.37,2.62,-0.67
37980,0.21,0.99,-0.12,5.07,4.58,-2.38
38000,0.21,0.97,-0.14,4.64,4.76,-4.39
38020,0.19,0.98,-0.15,3.17,4.21,-6.96
38040,0.18,0.97,-0.16,1.22,2.14,-8.54
38060,0.17,0.99,-0.15,-2.38,0.18,-8.54
38080,0.17,1.00,-0.12,-5.25,-1.04,-7.26
38100,0.17,1.01,-0.10,-3.30,-2.50,-6.10
38120,0.17,1.00,-0.11,-1.04,-2.08,-5.19
38140,0.17,1.00,-0.13,-0.12,-1.95,-4.09
38160,0.18,0.99,-0.14,-0.61,-1.04,-3.60
38180,0.17,0.99,-0.13,-1.46,-0.12,-2.75
38200,0.17,1.00,-0.13,-1.53,0.24,-1.53
38220,0.17,1.00,-0.12,-1.40,0.18,-0.55
38240,0.17,1.00,-0.13,-0.31,0.55,-0.37
38260,0.17,1.00,-0.13,-0.18,0.43,-0.49
38280,0.17,1.00,-0.13,-0.43,0.12,-0.37
38300,0.17,1.00,-0.13,-0.49,0.37,-0.06
38320,0.17,1.00,-0.13,-0.79,0.37,0.18
38340,0.18,0.99,-0.13,-0.61,0.49,0.31
38360,0.18,0.99,-0.13,-0.67,0.55,-0.06
38380,0.17,0.99,-0.13,-1.34,0.73,-0.24
38400,0.18,1.00,-0.13,-1.46,0.92,-0.24
38420,0.17,1.00,-0.12,-0.92,0.98,-0.12
38440,0.17,1.00,-0.12,-0.12,0.92,0.00
38460,0.18,0.99,-0.13,0.12,0.85,0.37
38480,0.17,0.99,-0.13,-0.18,1.34,0.79
38500,0.18,1.00,-0.13,-0.49,1.16,1.04
38520,0.18,0.99,-0.13,0.37,1.16,0.98
38540,0.18,1.00,-0.13,0.24,1.46,0.85
38560,0.18,0.99,-0.13,-0.06,1.65,0.55
38580,0.18,0.99,-0.13,-0.43,2.26,0.61
38600,0.17,0.99,-0.13,-0.79,2.50,1.04
38620,0.17,0.99,-0.13,-1.16,2.69,1.34
38640,0.15,1.00,-0.12,-1.34,2.38,1.95
38660,0.14,1.00,-0.12,-1.77,0.61,4.33
38680,0.16,0.99,-0.14,-5.13,-3.60,8.91
38700,0.17,1.00,-0.14,-10.25,-7.93,10.56
38720,0.17,1.02,-0.10,-17.70,-9.46,12.94
38740,0.17,1.04,-0.12,-18.55,-11.90,16.66
38760,0.16,1.09,-0.07,-18.43,-14.71,20.69
38780,0.16,1.18,-0.11,-19.53,-14.34,28.20
38800,0.26,1.16,-0.13,-10.99,-18.43,40.89
38820,0.26,1.07,-0.13,-7.32,-11.54,47.00
38840,0.24,1.12,-0.22,-11.17,-4.21,49.87
38860,0.27,1.05,-0.17,-19.10,-8.18,54.93
38880,0.29,0.99,-0.16,-25.57,-9.16,56.58
38900,0.31,0.98,-0.08,-30.46,-11.41,57.74
38920,0.32,0.99,-0.02,-32.47,-10.50,59.39
38940,0.37,0.92,0.01,-31.98,-10.01,61.28
38960,0.39,0.89,0.04,-30.21,-7.26,59.02
38980,0.43,0.85,0.03,-25.15,-5.31,55.79
39000,0.48,0.81,0.06,-23.86,-3.85,50.72
39020,0.49,0.80,0.05,-20.63,-2.08,45.17
39040,0.53,0.75,0.07,-17.58,-3.36,37.54
39060,0.55,0.75,0.06,-13.85,-2.32,29.97
39080,0.56,0.73,0.06,-9.70,-2.56,23.25
39100,0.58,0.72,0.08,-6.04,-2.56,15.01
39120,0.59,0.70,0.11,-0.37,-1.53,2.14
39140,0.57,0.71,0.07,2.50,1.53,-6.77
39160,0.59,0.69,0.09,7.02,1.89,-15.99
39180,0.55,0.76,0.11,13.67,3.85,-30.03
39200,0.50,0.80,0.12,17.94,6.59,-36.50
39220,0.45,0.93,0.02,21.97,7.63,-39.00
39240,0.49,0.86,-0.05,21.30,6.35,-37.11
39260,0.53,0.69,-0.09,18.43,7.93,-42.42
39280,0.54,0.66,-0.03,13.61,9.89,-53.77
39300,0.30,1.04,0.09,13.43,12.63,-67.44
39320,0.24,1.26,0.14,22.83,6.96,-58.35
39340,0.30,1.10,-0.03,29.97,7.45,-39.12
39360,0.41,0.86,-0.14,26.43,14.83,-37.78
39380,0.47,0.55,-0.17,19.96,20.63,-52.37
39400,0.40,0.74,-0.13,9.28,26.55,-75.01
39420,0.21,1.14,-0.02,8.79,21.97,-83.01
39440,0.25,1.38,-0.21,16.42,41.44,-71.72
39460,0.13,1.26,-0.42,18.19,51.27,-58.90
39480,-0.17,1.39,0.07,31.25,34.42,-25.39
39500,0.19,1.02,-0.11,0.79,-1.10,-3.23
39520,0.22,1.00,-0.08,-1.40,2.38,-1.40
39540,0.23,0.98,-0.11,2.08,4.76,-2.99
39560,0.22,0.97,-0.15,6.29,5.92,-9.64
39580,0.18,0.98,-0.15,3.78,4.03,-12.21
39600,0.17,0.99,-0.15,-0.24,1.16,-11.96
39620,0.17,0.99,-0.13,-4.58,-2.26,-10.80
39640,0.17,1.00,-0.11,-5.98,-3.48,-10.19
39660,0.17,1.01,-0.09,-4.88,-2.14,-8.91
39680,0.18,1.00,-0.11,0.00,-2.32,-7.08
39700,0.16,1.00,-0.11,1.28,-2.01,-6.53
39720,0.17,1.00,-0.13,1.16,-2.26,-5.49
39740,0.17,0.99,-0.13,0.73,-1.59,-3.97
39760,0.17,0.99,-0.13,0.24,-0.92,-4.09
39780,0.17,1.00,-0.13,0.31,-0.73,-4.27
39800,0.17,1.00,-0.13,0.98,-0.37,-4.76
39820,0.16,1.00,-0.13,0.79,-0.67,-4.52
39840,0.16,1.00,-0.13,0.31,-0.92,-4.03
39860,0.16,1.00,-0.13,-0.43,-0.67,-3.54
39880,0.16,1.00,-0.13,-0.85,-0.49,-2.69
39900,0.15,1.00,-0.13,-0.79,-0.24,-2.08
39920,0.16,1.00,-0.13,-0.61,-0.12,-1.34
39940,0.16,1.00,-0.13,-0.49,0.24,-1.83
39960,0.16,1.00,-0.13,-0.43,0.67,-1.46
39980,0.16,1.00,-0.13,-0.67,0.61,-1.10
40000,0.15,1.00,-0.13,-0.73,1.04,-0.12
40020,0.15,1.00,-0.12,-0.79,1.34,0.37
40040,0.16,1.00,-0.13,-0.43,1.16,0.98
40060,0.16,1.00,-0.13,0.18,1.28,1.04
40080,0.16,1.00,-0.13,0.24,1.40,1.40
40100,0.16,0.99,-0.14,0.12,1.77,1.71
40120,0.16,1.00,-0.14,-0.37,2.44,1.89
40140,0.15,1.00,-0.13,-0.61,3.17,2.14
40160,0.17,1.00,-0.13,-0.67,3.23,2.62
40180,0.16,1.00,-0.13,-1.22,4.58,2.87
40200,0.17,0.99,-0.14,-1.59,4.46,3.30
40220,0.16,1.00,-0.13,-2.44,4.64,3.78
40240,0.16,1.00,-0.12,-2.87,3.85,5.19
40260,0.14,1.00,-0.12,-2.87,2.81,5.86
40280,0.16,1.00,-0.12,-3.97,0.31,9.70
40300,0.18,0.99,-0.15,-5.19,-2.32,10.25
40320,0.18,1.01,-0.12,-9.40,-6.84,12.27
40340,0.16,1.04,-0.09,-11.23,-8.61,14.04
40360,0.16,1.04,-0.11,-12.57,-9.83,17.52
40380,0.18,1.10,-0.11,-12.45,-10.93,26.49
40400,0.15,1.13,-0.13,-7.51,-11.78,34.18
40420,0.22,1.18,-0.17,-6.29,-14.89,44.01
40440,0.24,1.20,-0.14,-8.73,-12.02,56.88
40460,0.27,1.11,-0.27,-13.37,-9.40,64.58
40480,0.24,1.13,-0.23,-23.07,-12.15,67.81
40500,0.28,1.04,-0.13,-33.87,-15.08,75.99
40520,0.30,0.99,-0.06,-38.21,-14.89,78.31
40540,0.33,0.95,-0.01,-39.73,-13.12,80.20
40560,0.46,0.79,0.04,-38.21,-8.97,79.53
40580,0.47,0.78,0.08,-35.46,-5.80,74.46
40600,0.53,0.68,0.08,-30.64,-4.70,68.54
40620,0.56,0.62,0.04,-25.88,-3.23,50.05
40640,0.60,0.61,0.05,-20.63,-4.82,40.28
40660,0.61,0.60,0.06,-15.69,-5.62,29.60
40680,0.63,0.61,0.07,-8.54,-3.60,11.35
40700,0.64,0.61,0.10,-2.62,-0.61,0.06
40720,0.64,0.58,0.14,3.60,1.34,-13.79
40740,0.61,0.62,0.12,9.46,4.46,-34.18
40760,0.54,0.80,0.11,19.04,5.37,-42.79
40780,0.49,0.91,0.06,22.71,5.92,-45.17
40800,0.46,1.00,0.00,24.78,4.94,-42.97
40820,0.50,0.88,-0.08,21.79,7.20,-37.11
40840,0.55,0.77,-0.08,16.97,8.12,-41.02
40860,0.57,0.58,0.05,14.95,10.56,-52.49
40880,0.30,0.99,0.14,20.20,20.57,-74.34
40900,0.33,0.98,0.11,31.37,12.57,-68.79
40920,0.37,0.80,-0.05,32.65,15.32,-59.69
40940,0.41,0.67,-0.23,25.15,25.76,-74.40
40960,0.43,0.66,-0.23,17.09,33.63,-96.25
40980,0.50,0.78,-0.06,11.17,40.89,-119.87
41000,0.08,2.09,0.14,28.56,139.59,-141.91
41020,-0.14,1.21,-0.03,36.93,-45.04,-27.47
41040,0.19,1.01,-0.14,-5.62,-4.64,4.33
41060,0.22,1.00,-0.07,-4.82,-2.93,4.15
41080,0.22,0.99,-0.08,0.18,-0.73,-1.59
41100,0.25,0.97,-0.11,4.09,-0.18,-4.58
41120,0.17,0.98,-0.17,2.08,1.40,-8.48
41140,0.19,0.98,-0.15,-3.42,0.49,-11.54
41160,0.17,0.99,-0.13,-2.99,0.06,-13.31
41180,0.16,1.00,-0.13,-2.81,-0.79,-14.40
41200,0.16,1.00,-0.12,-6.16,-1.77,-13.18
41220,0.16,1.00,-0.09,-6.53,-0.98,-11.17
41240,0.15,1.02,-0.08,-3.85,0.55,-9.46
41260,0.13,1.01,-0.09,1.65,0.92,-3.78
41280,0.14,1.01,-0.11,2.62,-0.31,-0.43
41300,0.17,0.98,-0.15,2.01,-1.16,1.34
41320,0.17,0.99,-0.13,-0.12,1.34,0.37
41340,0.16,1.00,-0.12,-0.43,1.77,-0.37
41360,0.16,1.01,-0.10,0.61,1.10,0.00
41380,0.16,1.00,-0.13,2.26,1.10,0.24
41400,0.17,0.99,-0.13,2.08,1.16,0.31
41420,0.17,1.00,-0.12,1.89,2.44,-0.79
41440,0.14,1.00,-0.11,4.52,2.32,-0.06
41460,0.15,1.01,-0.11,5.86,1.34,2.14
41480,0.18,0.99,-0.14,7.14,2.62,2.50
41500,0.18,0.99,-0.14,7.26,5.80,1.34
41520,0.16,0.99,-0.16,6.96,6.53,-0.24
41540,0.17,0.99,-0.15,5.31,5.37,-0.55
41560,0.16,0.99,-0.15,4.58,6.59,-1.59
41580,0.14,1.00,-0.13,4.27,5.00,-1.10
41600,0.15,1.00,-0.15,5.55,3.78,1.04
41620,0.16,0.99,-0.15,5.49,4.39,2.14
41640,0.17,0.99,-0.16,6.35,5.00,2.32
41660,0.17,0.98,-0.17,6.77,4.94,1.95
41680,0.15,0.99,-0.17,6.23,4.33,1.53
41700,0.14,1.00,-0.16,6.77,3.30,3.60
41720,0.15,1.00,-0.15,7.81,3.42,6.53
41740,0.19,0.98,-0.19,7.69,2.50,8.79
41760,0.18,0.98,-0.20,5.25,2.99,6.47
41780,0.17,0.98,-0.18,4.03,2.56,5.00
41800,0.17,1.00,-0.18,3.48,2.32,4.82
41820,0.19,0.98,-0.18,4.27,2.26,5.37
41840,0.18,0.99,-0.18,4.82,2.20,5.07
41860,0.19,0.98,-0.19,5.07,2.99,5.19
41880,0.19,0.97,-0.20,4.09,2.81,4.09
41900,0.19,0.98,-0.19,2.99,2.32,3.72
41920,0.20,0.97,-0.20,2.26,2.20,3.97
41940,0.20,0.96,-0.22,1.59,3.23,2.87
41960,0.20,0.97,-0.21,-0.92,3.60,2.26
41980,0.19,0.98,-0.19,-2.26,3.23,1.95
42000,0.19,0.98,-0.20,-1.59,2.75,2.14
42020,0.20,0.98,-0.20,-1.28,2.14,2.38
42040,0.20,0.97,-0.21,-1.04,2.32,2.20
42060,0.21,0.97,-0.21,-1.34,2.26,1.89
42080,0.19,0.98,-0.19,-1.89,1.71,1.71
42100,0.20,0.98,-0.19,-1.71,1.53,2.08
42120,0.20,0.98,-0.20,-1.83,1.40,2.32
42140,0.21,0.97,-0.21,-2.20,1.71,2.01
42160,0.21,0.97,-0.20,-2.38,1.71,1.34
42180,0.20,0.98,-0.19,-2.32,1.65,1.28
42200,0.21,0.97,-0.20,-1.71,1.53,1.71
42220,0.21,0.97,-0.20,-1.53,1.71,1.53
42240,0.21